Timestamp,GyroX,GyroY,GyroZ,AccX,AccY,AccZ
1764511191.3645256,-3.5861,1.05294,0.06104,0.966245085,0.110778525,0.135680805
1764511191.3645256,-3.5861,1.05294,0.06104,0.966245085,0.110778525,0.135680805
1764511191.3645256,-3.5861,1.05294,0.06104,0.966245085,0.110778525,0.135680805
1764511191.3645256,-3.5861,1.05294,0.06104,0.966245085,0.110778525,0.135680805
1764511191.3645256,-3.75396,0.74774,0.47306,0.96471921,0.109924035,0.13586391
1764511191.3645256,-3.75396,0.74774,0.47306,0.96471921,0.109924035,0.13586391
1764511191.3645256,-3.75396,0.74774,0.47306,0.96471921,0.109924035,0.13586391
1764511191.3645256,-3.75396,0.74774,0.47306,0.96471921,0.109924035,0.13586391
1764511191.3655574,-3.75396,0.74774,0.47306,0.96471921,0.109924035,0.13586391
1764511191.3655574,-3.75396,0.74774,0.47306,0.96471921,0.109924035,0.13586391
1764511191.3655574,-3.75396,0.74774,0.47306,0.96471921,0.109924035,0.13586391
1764511191.3655574,-3.75396,0.74774,0.47306,0.96471921,0.109924035,0.13586391
1764511191.3655574,-3.75396,0.74774,0.47306,0.96471921,0.109924035,0.13586391
1764511191.3655574,-3.75396,0.74774,0.47306,0.96471921,0.109924035,0.13586391
1764511191.3655574,-3.34194,0.97664,0.25942,0.96532956,0.109679895,0.135436665
1764511191.3655574,-3.34194,0.97664,0.25942,0.96532956,0.109679895,0.135436665
1764511191.3655574,-3.34194,0.97664,0.25942,0.96532956,0.109679895,0.135436665
1764511191.3655574,-3.34194,0.97664,0.25942,0.96532956,0.109679895,0.135436665
1764511191.3655574,-3.34194,0.97664,0.25942,0.96532956,0.109679895,0.135436665
1764511191.3655574,-3.34194,0.97664,0.25942,0.96532956,0.109679895,0.135436665
1764511191.3655574,-3.34194,0.97664,0.25942,0.96532956,0.109679895,0.135436665
1764511191.3655574,-3.34194,0.97664,0.25942,0.96532956,0.109679895,0.135436665
1764511191.3655574,-3.34194,0.97664,0.25942,0.96532956,0.109679895,0.135436665
1764511191.3655574,-3.34194,0.97664,0.25942,0.96532956,0.109679895,0.135436665
1764511191.4099011,-3.17408,0.47306,0.3357199999999999,0.96581784,0.10925265,0.134826315
1764511191.4099011,-3.17408,0.47306,0.3357199999999999,0.96581784,0.10925265,0.134826315
1764511191.4099011,-3.17408,0.47306,0.3357199999999999,0.96581784,0.10925265,0.134826315
1764511191.4099011,-3.17408,0.47306,0.3357199999999999,0.96581784,0.10925265,0.134826315
1764511191.4099011,-3.17408,0.47306,0.3357199999999999,0.96581784,0.10925265,0.134826315
1764511191.4109452,-3.17408,0.47306,0.3357199999999999,0.96581784,0.10925265,0.134826315
1764511191.4109452,-3.17408,0.47306,0.3357199999999999,0.96581784,0.10925265,0.134826315
1764511191.4109452,-3.17408,0.47306,0.3357199999999999,0.96581784,0.10925265,0.134826315
1764511191.4109452,-3.17408,0.47306,0.3357199999999999,0.96581784,0.10925265,0.134826315
1764511191.4109452,-3.17408,0.47306,0.3357199999999999,0.96581784,0.10925265,0.134826315
1764511191.4109452,-3.31142,0.6867,0.3357199999999999,0.96691647,0.109801965,0.13415493
1764511191.4109452,-3.31142,0.6867,0.3357199999999999,0.96691647,0.109801965,0.13415493
1764511191.4109452,-3.31142,0.6867,0.3357199999999999,0.96691647,0.109801965,0.13415493
1764511191.4109452,-3.31142,0.6867,0.3357199999999999,0.96691647,0.109801965,0.13415493
1764511191.4109452,-3.31142,0.6867,0.3357199999999999,0.96691647,0.109801965,0.13415493
1764511191.4109452,-3.31142,0.6867,0.3357199999999999,0.96691647,0.109801965,0.13415493
1764511191.4109452,-3.31142,0.6867,0.3357199999999999,0.96691647,0.109801965,0.13415493
1764511191.4109452,-3.31142,0.6867,0.3357199999999999,0.96691647,0.109801965,0.13415493
1764511191.4109452,-3.31142,0.6867,0.3357199999999999,0.96691647,0.109801965,0.13415493
1764511191.4109452,-3.31142,0.6867,0.3357199999999999,0.96691647,0.109801965,0.13415493
1764511191.4109452,-3.90656,0.82404,0.01526,0.96728268,0.11096163,0.13269009
1764511191.4109452,-3.90656,0.82404,0.01526,0.96728268,0.11096163,0.13269009
1764511191.4594593,-3.90656,0.82404,0.01526,0.96728268,0.11096163,0.13269009
1764511191.4594593,-3.90656,0.82404,0.01526,0.96728268,0.11096163,0.13269009
1764511191.4594593,-3.90656,0.82404,0.01526,0.96728268,0.11096163,0.13269009
1764511191.4594593,-3.90656,0.82404,0.01526,0.96728268,0.11096163,0.13269009
1764511191.4594593,-3.90656,0.82404,0.01526,0.96728268,0.11096163,0.13269009
1764511191.4594593,-3.90656,0.82404,0.01526,0.96728268,0.11096163,0.13269009
1764511191.4594593,-3.90656,0.82404,0.01526,0.96728268,0.11096163,0.13269009
1764511191.4594593,-3.90656,0.82404,0.01526,0.96728268,0.11096163,0.13269009
1764511191.4594593,-4.303319999999999,1.55652,0.10682,0.968320275,0.110168175,0.13281216
1764511191.4594593,-4.303319999999999,1.55652,0.10682,0.968320275,0.110168175,0.13281216
1764511191.4594593,-4.303319999999999,1.55652,0.10682,0.968320275,0.110168175,0.13281216
1764511191.4594593,-4.303319999999999,1.55652,0.10682,0.968320275,0.110168175,0.13281216
1764511191.4594593,-4.303319999999999,1.55652,0.10682,0.968320275,0.110168175,0.13281216
1764511191.4594593,-4.303319999999999,1.55652,0.10682,0.968320275,0.110168175,0.13281216
1764511191.4594593,-4.303319999999999,1.55652,0.10682,0.968320275,0.110168175,0.13281216
1764511191.4594593,-4.303319999999999,1.55652,0.10682,0.968320275,0.110168175,0.13281216
1764511191.4594593,-4.303319999999999,1.55652,0.10682,0.968320275,0.110168175,0.13281216
1764511191.4594593,-4.303319999999999,1.55652,0.10682,0.968320275,0.110168175,0.13281216
1764511191.4594593,-3.67766,1.96854,0.13734,0.968686485,0.109069545,0.132995265
1764511191.460453,-3.67766,1.96854,0.13734,0.968686485,0.109069545,0.132995265
1764511191.460453,-3.67766,1.96854,0.13734,0.968686485,0.109069545,0.132995265
1764511191.460453,-3.67766,1.96854,0.13734,0.968686485,0.109069545,0.132995265
1764511191.460453,-3.67766,1.96854,0.13734,0.968686485,0.109069545,0.132995265
1764511191.460453,-3.67766,1.96854,0.13734,0.968686485,0.109069545,0.132995265
1764511191.5049503,-3.67766,1.96854,0.13734,0.968686485,0.109069545,0.132995265
1764511191.5049503,-3.67766,1.96854,0.13734,0.968686485,0.109069545,0.132995265
1764511191.5049503,-3.67766,1.96854,0.13734,0.968686485,0.109069545,0.132995265
1764511191.5049503,-3.67766,1.96854,0.13734,0.968686485,0.109069545,0.132995265
1764511191.5064864,-3.17408,2.35004,0.27468,0.96716061,0.10815402,0.132873195
1764511191.5064864,-3.17408,2.35004,0.27468,0.96716061,0.10815402,0.132873195
1764511191.5064864,-3.17408,2.35004,0.27468,0.96716061,0.10815402,0.132873195
1764511191.5064864,-3.17408,2.35004,0.27468,0.96716061,0.10815402,0.132873195
1764511191.5064864,-3.17408,2.35004,0.27468,0.96716061,0.10815402,0.132873195
1764511191.5064864,-3.17408,2.35004,0.27468,0.96716061,0.10815402,0.132873195
1764511191.5064864,-3.17408,2.35004,0.27468,0.96716061,0.10815402,0.132873195
1764511191.5064864,-3.17408,2.35004,0.27468,0.96716061,0.10815402,0.132873195
1764511191.5064864,-3.17408,2.35004,0.27468,0.96716061,0.10815402,0.132873195
1764511191.5064864,-3.17408,2.35004,0.27468,0.96716061,0.10815402,0.132873195
1764511191.5064864,-2.3653,2.2127,0.2289,0.9655737,0.106994355,0.13342251
1764511191.5064864,-2.3653,2.2127,0.2289,0.9655737,0.106994355,0.13342251
1764511191.5064864,-2.3653,2.2127,0.2289,0.9655737,0.106994355,0.13342251
1764511191.5064864,-2.3653,2.2127,0.2289,0.9655737,0.106994355,0.13342251
1764511191.5064864,-2.3653,2.2127,0.2289,0.9655737,0.106994355,0.13342251
1764511191.5064864,-2.3653,2.2127,0.2289,0.9655737,0.106994355,0.13342251
1764511191.5064864,-2.3653,2.2127,0.2289,0.9655737,0.106994355,0.13342251
1764511191.5064864,-2.3653,2.2127,0.2289,0.9655737,0.106994355,0.13342251
1764511191.5064864,-2.3653,2.2127,0.2289,0.9655737,0.106994355,0.13342251
1764511191.5064864,-2.3653,2.2127,0.2289,0.9655737,0.106994355,0.13342251
1764511191.5526855,-2.02958,2.48738,0.3815,0.965146455,0.107238495,0.13403286
1764511191.5526855,-2.02958,2.48738,0.3815,0.965146455,0.107238495,0.13403286
1764511191.5526855,-2.02958,2.48738,0.3815,0.965146455,0.107238495,0.13403286
1764511191.5526855,-2.02958,2.48738,0.3815,0.965146455,0.107238495,0.13403286
1764511191.5526855,-2.02958,2.48738,0.3815,0.965146455,0.107238495,0.13403286
1764511191.5526855,-2.02958,2.48738,0.3815,0.965146455,0.107238495,0.13403286
1764511191.553686,-2.02958,2.48738,0.3815,0.965146455,0.107238495,0.13403286
1764511191.553686,-2.02958,2.48738,0.3815,0.965146455,0.107238495,0.13403286
1764511191.553686,-2.02958,2.48738,0.3815,0.965146455,0.107238495,0.13403286
1764511191.553686,-2.02958,2.48738,0.3815,0.965146455,0.107238495,0.13403286
1764511191.553686,-2.09062,1.96854,0.77826,0.96606198,0.108703335,0.134826315
1764511191.553686,-2.09062,1.96854,0.77826,0.96606198,0.108703335,0.134826315
1764511191.553686,-2.09062,1.96854,0.77826,0.96606198,0.108703335,0.134826315
1764511191.553686,-2.09062,1.96854,0.77826,0.96606198,0.108703335,0.134826315
1764511191.553686,-2.09062,1.96854,0.77826,0.96606198,0.108703335,0.134826315
1764511191.553686,-2.09062,1.96854,0.77826,0.96606198,0.108703335,0.134826315
1764511191.553686,-2.09062,1.96854,0.77826,0.96606198,0.108703335,0.134826315
1764511191.553686,-2.09062,1.96854,0.77826,0.96606198,0.108703335,0.134826315
1764511191.553686,-2.09062,1.96854,0.77826,0.96606198,0.108703335,0.134826315
1764511191.553686,-2.09062,1.96854,0.77826,0.96606198,0.108703335,0.134826315
1764511191.5979164,-2.85362,1.84646,0.62566,0.966123015,0.110778525,0.134948385
1764511191.5979164,-2.85362,1.84646,0.62566,0.966123015,0.110778525,0.134948385
1764511191.5979164,-2.85362,1.84646,0.62566,0.966123015,0.110778525,0.134948385
1764511191.5979164,-2.85362,1.84646,0.62566,0.966123015,0.110778525,0.134948385
1764511191.5979164,-2.85362,1.84646,0.62566,0.966123015,0.110778525,0.134948385
1764511191.5979164,-2.85362,1.84646,0.62566,0.966123015,0.110778525,0.134948385
1764511191.5979164,-2.85362,1.84646,0.62566,0.966123015,0.110778525,0.134948385
1764511191.5979164,-2.85362,1.84646,0.62566,0.966123015,0.110778525,0.134948385
1764511191.5979164,-2.85362,1.84646,0.62566,0.966123015,0.110778525,0.134948385
1764511191.5979164,-2.85362,1.84646,0.62566,0.966123015,0.110778525,0.134948385
1764511191.5979164,-3.5098,1.7549,0.56462,0.965756805,0.112243365,0.13561977
1764511191.5979164,-3.5098,1.7549,0.56462,0.965756805,0.112243365,0.13561977
1764511191.5979164,-3.5098,1.7549,0.56462,0.965756805,0.112243365,0.13561977
1764511191.5979164,-3.5098,1.7549,0.56462,0.965756805,0.112243365,0.13561977
1764511191.5979164,-3.5098,1.7549,0.56462,0.965756805,0.112243365,0.13561977
1764511191.5979164,-3.5098,1.7549,0.56462,0.965756805,0.112243365,0.13561977
1764511191.5979164,-3.5098,1.7549,0.56462,0.965756805,0.112243365,0.13561977
1764511191.5979164,-3.5098,1.7549,0.56462,0.965756805,0.112243365,0.13561977
1764511191.5979164,-3.5098,1.7549,0.56462,0.965756805,0.112243365,0.13561977
1764511191.5979164,-3.5098,1.7549,0.56462,0.965756805,0.112243365,0.13561977
1764511191.5979164,-3.84552,1.78542,0.4578,0.96593991,0.11254854,0.136413225
1764511191.5979164,-3.84552,1.78542,0.4578,0.96593991,0.11254854,0.136413225
1764511191.5994625,-3.84552,1.78542,0.4578,0.96593991,0.11254854,0.136413225
1764511191.5994625,-3.84552,1.78542,0.4578,0.96593991,0.11254854,0.136413225
1764511191.6478348,-3.84552,1.78542,0.4578,0.96593991,0.11254854,0.136413225
1764511191.6478348,-3.84552,1.78542,0.4578,0.96593991,0.11254854,0.136413225
1764511191.6478348,-3.84552,1.78542,0.4578,0.96593991,0.11254854,0.136413225
1764511191.648837,-3.84552,1.78542,0.4578,0.96593991,0.11254854,0.136413225
1764511191.648837,-3.84552,1.78542,0.4578,0.96593991,0.11254854,0.136413225
1764511191.648837,-3.84552,1.78542,0.4578,0.96593991,0.11254854,0.136413225
1764511191.648837,-3.37246,1.6786,0.36624,0.96581784,0.112609575,0.137267715
1764511191.648837,-3.37246,1.6786,0.36624,0.96581784,0.112609575,0.137267715
1764511191.648837,-3.37246,1.6786,0.36624,0.96581784,0.112609575,0.137267715
1764511191.648837,-3.37246,1.6786,0.36624,0.96581784,0.112609575,0.137267715
1764511191.648837,-3.37246,1.6786,0.36624,0.96581784,0.112609575,0.137267715
1764511191.648837,-3.37246,1.6786,0.36624,0.96581784,0.112609575,0.137267715
1764511191.648837,-3.37246,1.6786,0.36624,0.96581784,0.112609575,0.137267715
1764511191.648837,-3.37246,1.6786,0.36624,0.96581784,0.112609575,0.137267715
1764511191.648837,-3.37246,1.6786,0.36624,0.96581784,0.112609575,0.137267715
1764511191.648837,-3.37246,1.6786,0.36624,0.96581784,0.112609575,0.137267715
1764511191.648837,-3.31142,1.3734,0.3509799999999999,0.965390595,0.111633015,0.137755995
1764511191.648837,-3.31142,1.3734,0.3509799999999999,0.965390595,0.111633015,0.137755995
1764511191.648837,-3.31142,1.3734,0.3509799999999999,0.965390595,0.111633015,0.137755995
1764511191.648837,-3.31142,1.3734,0.3509799999999999,0.965390595,0.111633015,0.137755995
1764511191.6498258,-3.31142,1.3734,0.3509799999999999,0.965390595,0.111633015,0.137755995
1764511191.6498258,-3.31142,1.3734,0.3509799999999999,0.965390595,0.111633015,0.137755995
1764511191.6498258,-3.31142,1.3734,0.3509799999999999,0.965390595,0.111633015,0.137755995
1764511191.6498258,-3.31142,1.3734,0.3509799999999999,0.965390595,0.111633015,0.137755995
1764511191.6498258,-3.31142,1.3734,0.3509799999999999,0.965390595,0.111633015,0.137755995
1764511191.6498258,-3.31142,1.3734,0.3509799999999999,0.965390595,0.111633015,0.137755995
1764511191.6936998,-2.92992,1.48022,0.44254,0.96496335,0.1110837,0.13745082
1764511191.6936998,-2.92992,1.48022,0.44254,0.96496335,0.1110837,0.13745082
1764511191.6936998,-2.92992,1.48022,0.44254,0.96496335,0.1110837,0.13745082
1764511191.6936998,-2.92992,1.48022,0.44254,0.96496335,0.1110837,0.13745082
1764511191.6936998,-2.92992,1.48022,0.44254,0.96496335,0.1110837,0.13745082
1764511191.6936998,-2.92992,1.48022,0.44254,0.96496335,0.1110837,0.13745082
1764511191.6936998,-2.92992,1.48022,0.44254,0.96496335,0.1110837,0.13745082
1764511191.6936998,-2.92992,1.48022,0.44254,0.96496335,0.1110837,0.13745082
1764511191.6936998,-2.92992,1.48022,0.44254,0.96496335,0.1110837,0.13745082
1764511191.6936998,-2.92992,1.48022,0.44254,0.96496335,0.1110837,0.13745082
1764511191.6936998,-3.40298,0.96138,1.1445,0.96545163,0.11144991,0.137267715
1764511191.6936998,-3.40298,0.96138,1.1445,0.96545163,0.11144991,0.137267715
1764511191.6936998,-3.40298,0.96138,1.1445,0.96545163,0.11144991,0.137267715
1764511191.6936998,-3.40298,0.96138,1.1445,0.96545163,0.11144991,0.137267715
1764511191.6936998,-3.40298,0.96138,1.1445,0.96545163,0.11144991,0.137267715
1764511191.694752,-3.40298,0.96138,1.1445,0.96545163,0.11144991,0.137267715
1764511191.694752,-3.40298,0.96138,1.1445,0.96545163,0.11144991,0.137267715
1764511191.694752,-3.40298,0.96138,1.1445,0.96545163,0.11144991,0.137267715
1764511191.694752,-3.40298,0.96138,1.1445,0.96545163,0.11144991,0.137267715
1764511191.694752,-3.40298,0.96138,1.1445,0.96545163,0.11144991,0.137267715
1764511191.694752,-2.96044,1.26658,1.87698,0.965878875,0.111022665,0.13806117
1764511191.694752,-2.96044,1.26658,1.87698,0.965878875,0.111022665,0.13806117
1764511191.7405634,-2.96044,1.26658,1.87698,0.965878875,0.111022665,0.13806117
1764511191.7405634,-2.96044,1.26658,1.87698,0.965878875,0.111022665,0.13806117
1764511191.7405634,-2.96044,1.26658,1.87698,0.965878875,0.111022665,0.13806117
1764511191.7405634,-2.96044,1.26658,1.87698,0.965878875,0.111022665,0.13806117
1764511191.7405634,-2.96044,1.26658,1.87698,0.965878875,0.111022665,0.13806117
1764511191.7405634,-2.96044,1.26658,1.87698,0.965878875,0.111022665,0.13806117
1764511191.7405634,-2.96044,1.26658,1.87698,0.965878875,0.111022665,0.13806117
1764511191.7405634,-2.96044,1.26658,1.87698,0.965878875,0.111022665,0.13806117
1764511191.7405634,-3.14356,1.61756,1.77016,0.96545163,0.111388875,0.138000135
1764511191.7405634,-3.14356,1.61756,1.77016,0.96545163,0.111388875,0.138000135
1764511191.7405634,-3.14356,1.61756,1.77016,0.96545163,0.111388875,0.138000135
1764511191.7405634,-3.14356,1.61756,1.77016,0.96545163,0.111388875,0.138000135
1764511191.7405634,-3.14356,1.61756,1.77016,0.96545163,0.111388875,0.138000135
1764511191.7405634,-3.14356,1.61756,1.77016,0.96545163,0.111388875,0.138000135
1764511191.7405634,-3.14356,1.61756,1.77016,0.96545163,0.111388875,0.138000135
1764511191.7405634,-3.14356,1.61756,1.77016,0.96545163,0.111388875,0.138000135
1764511191.7425678,-3.14356,1.61756,1.77016,0.96545163,0.111388875,0.138000135
1764511191.7425678,-3.14356,1.61756,1.77016,0.96545163,0.111388875,0.138000135
1764511191.7425678,-3.14356,0.9156,1.93802,0.964902315,0.11120577,0.137145645
1764511191.7425678,-3.14356,0.9156,1.93802,0.964902315,0.11120577,0.137145645
1764511191.7425678,-3.14356,0.9156,1.93802,0.964902315,0.11120577,0.137145645
1764511191.7425678,-3.14356,0.9156,1.93802,0.964902315,0.11120577,0.137145645
1764511191.7425678,-3.14356,0.9156,1.93802,0.964902315,0.11120577,0.137145645
1764511191.7425678,-3.14356,0.9156,1.93802,0.964902315,0.11120577,0.137145645
1764511191.787325,-3.14356,0.9156,1.93802,0.964902315,0.11120577,0.137145645
1764511191.787325,-3.14356,0.9156,1.93802,0.964902315,0.11120577,0.137145645
1764511191.787325,-3.14356,0.9156,1.93802,0.964902315,0.11120577,0.137145645
1764511191.787325,-3.14356,0.9156,1.93802,0.964902315,0.11120577,0.137145645
1764511191.787325,-3.23512,0.5341,1.19028,0.96532956,0.11010714,0.13684047
1764511191.787325,-3.23512,0.5341,1.19028,0.96532956,0.11010714,0.13684047
1764511191.787325,-3.23512,0.5341,1.19028,0.96532956,0.11010714,0.13684047
1764511191.787325,-3.23512,0.5341,1.19028,0.96532956,0.11010714,0.13684047
1764511191.787325,-3.23512,0.5341,1.19028,0.96532956,0.11010714,0.13684047
1764511191.787325,-3.23512,0.5341,1.19028,0.96532956,0.11010714,0.13684047
1764511191.787325,-3.23512,0.5341,1.19028,0.96532956,0.11010714,0.13684047
1764511191.787325,-3.23512,0.5341,1.19028,0.96532956,0.11010714,0.13684047
1764511191.787325,-3.23512,0.5341,1.19028,0.96532956,0.11010714,0.13684047
1764511191.787325,-3.23512,0.5341,1.19028,0.96532956,0.11010714,0.13684047
1764511191.787325,-3.52506,-0.18312,-0.21364,0.965390595,0.110900595,0.13598598
1764511191.787325,-3.52506,-0.18312,-0.21364,0.965390595,0.110900595,0.13598598
1764511191.787325,-3.52506,-0.18312,-0.21364,0.965390595,0.110900595,0.13598598
1764511191.787325,-3.52506,-0.18312,-0.21364,0.965390595,0.110900595,0.13598598
1764511191.787325,-3.52506,-0.18312,-0.21364,0.965390595,0.110900595,0.13598598
1764511191.787325,-3.52506,-0.18312,-0.21364,0.965390595,0.110900595,0.13598598
1764511191.787325,-3.52506,-0.18312,-0.21364,0.965390595,0.110900595,0.13598598
1764511191.7883625,-3.52506,-0.18312,-0.21364,0.965390595,0.110900595,0.13598598
1764511191.7883625,-3.52506,-0.18312,-0.21364,0.965390595,0.110900595,0.13598598
1764511191.7883625,-3.52506,-0.18312,-0.21364,0.965390595,0.110900595,0.13598598
1764511191.8366077,-4.07442,0.12208,-0.09156,0.967343715,0.11193819,0.135802875
1764511191.8366077,-4.07442,0.12208,-0.09156,0.967343715,0.11193819,0.135802875
1764511191.8366077,-4.07442,0.12208,-0.09156,0.967343715,0.11193819,0.135802875
1764511191.8366077,-4.07442,0.12208,-0.09156,0.967343715,0.11193819,0.135802875
1764511191.8366077,-4.07442,0.12208,-0.09156,0.967343715,0.11193819,0.135802875
1764511191.8366077,-4.07442,0.12208,-0.09156,0.967343715,0.11193819,0.135802875
1764511191.8366077,-4.07442,0.12208,-0.09156,0.967343715,0.11193819,0.135802875
1764511191.8366077,-4.07442,0.12208,-0.09156,0.967343715,0.11193819,0.135802875
1764511191.8366077,-4.07442,0.12208,-0.09156,0.967343715,0.11193819,0.135802875
1764511191.8366077,-4.07442,0.12208,-0.09156,0.967343715,0.11193819,0.135802875
1764511191.837122,-4.28806,1.41918,0.21364,0.96825924,0.11157198,0.13561977
1764511191.837122,-4.28806,1.41918,0.21364,0.96825924,0.11157198,0.13561977
1764511191.837122,-4.28806,1.41918,0.21364,0.96825924,0.11157198,0.13561977
1764511191.837122,-4.28806,1.41918,0.21364,0.96825924,0.11157198,0.13561977
1764511191.837122,-4.28806,1.41918,0.21364,0.96825924,0.11157198,0.13561977
1764511191.837122,-4.28806,1.41918,0.21364,0.96825924,0.11157198,0.13561977
1764511191.837122,-4.28806,1.41918,0.21364,0.96825924,0.11157198,0.13561977
1764511191.837122,-4.28806,1.41918,0.21364,0.96825924,0.11157198,0.13561977
1764511191.837122,-4.28806,1.41918,0.21364,0.96825924,0.11157198,0.13561977
1764511191.837122,-4.28806,1.41918,0.21364,0.96825924,0.11157198,0.13561977
1764511191.837122,-4.2728,1.64808,0.51884,0.967343715,0.110900595,0.134582175
1764511191.837122,-4.2728,1.64808,0.51884,0.967343715,0.110900595,0.134582175
1764511191.837122,-4.2728,1.64808,0.51884,0.967343715,0.110900595,0.134582175
1764511191.837122,-4.2728,1.64808,0.51884,0.967343715,0.110900595,0.134582175
1764511191.837122,-4.2728,1.64808,0.51884,0.967343715,0.110900595,0.134582175
1764511191.837122,-4.2728,1.64808,0.51884,0.967343715,0.110900595,0.134582175
1764511191.8820963,-4.2728,1.64808,0.51884,0.967343715,0.110900595,0.134582175
1764511191.8820963,-4.2728,1.64808,0.51884,0.967343715,0.110900595,0.134582175
1764511191.8820963,-4.2728,1.64808,0.51884,0.967343715,0.110900595,0.134582175
1764511191.8830976,-4.2728,1.64808,0.51884,0.967343715,0.110900595,0.134582175
1764511191.8836124,-3.8913,1.05294,0.93086,0.964169895,0.110046105,0.135314595
1764511191.8836124,-3.8913,1.05294,0.93086,0.964169895,0.110046105,0.135314595
1764511191.8836124,-3.8913,1.05294,0.93086,0.964169895,0.110046105,0.135314595
1764511191.8836124,-3.8913,1.05294,0.93086,0.964169895,0.110046105,0.135314595
1764511191.8836124,-3.8913,1.05294,0.93086,0.964169895,0.110046105,0.135314595
1764511191.8846433,-3.8913,1.05294,0.93086,0.964169895,0.110046105,0.135314595
1764511191.8846433,-3.8913,1.05294,0.93086,0.964169895,0.110046105,0.135314595
1764511191.8846433,-3.8913,1.05294,0.93086,0.964169895,0.110046105,0.135314595
1764511191.8846433,-3.8913,1.05294,0.93086,0.964169895,0.110046105,0.135314595
1764511191.8846433,-3.8913,1.05294,0.93086,0.964169895,0.110046105,0.135314595
1764511191.8846433,-3.2046,1.34288,1.26658,0.963925755,0.10888644,0.136535295
1764511191.8846433,-3.2046,1.34288,1.26658,0.963925755,0.10888644,0.136535295
1764511191.8856432,-3.2046,1.34288,1.26658,0.963925755,0.10888644,0.136535295
1764511191.8856432,-3.2046,1.34288,1.26658,0.963925755,0.10888644,0.136535295
1764511191.8856432,-3.2046,1.34288,1.26658,0.963925755,0.10888644,0.136535295
1764511191.8856432,-3.2046,1.34288,1.26658,0.963925755,0.10888644,0.136535295
1764511191.8856432,-3.2046,1.34288,1.26658,0.963925755,0.10888644,0.136535295
1764511191.8856432,-3.2046,1.34288,1.26658,0.963925755,0.10888644,0.136535295
1764511191.9274838,-3.2046,1.34288,1.26658,0.963925755,0.10888644,0.136535295
1764511191.9279974,-3.2046,1.34288,1.26658,0.963925755,0.10888644,0.136535295
1764511191.9279974,-2.54842,0.8698199999999999,1.23606,0.965146455,0.108581265,0.137267715
1764511191.9279974,-2.54842,0.8698199999999999,1.23606,0.965146455,0.108581265,0.137267715
1764511191.9279974,-2.54842,0.8698199999999999,1.23606,0.965146455,0.108581265,0.137267715
1764511191.9279974,-2.54842,0.8698199999999999,1.23606,0.965146455,0.108581265,0.137267715
1764511191.9279974,-2.54842,0.8698199999999999,1.23606,0.965146455,0.108581265,0.137267715
1764511191.9279974,-2.54842,0.8698199999999999,1.23606,0.965146455,0.108581265,0.137267715
1764511191.9301834,-2.54842,0.8698199999999999,1.23606,0.965146455,0.108581265,0.137267715
1764511191.9301834,-2.54842,0.8698199999999999,1.23606,0.965146455,0.108581265,0.137267715
1764511191.9301834,-2.54842,0.8698199999999999,1.23606,0.965146455,0.108581265,0.137267715
1764511191.9301834,-2.54842,0.8698199999999999,1.23606,0.965146455,0.108581265,0.137267715
1764511191.9301834,-2.45686,1.4497,0.763,0.9667944,0.109557825,0.13745082
1764511191.9301834,-2.45686,1.4497,0.763,0.9667944,0.109557825,0.13745082
1764511191.9301834,-2.45686,1.4497,0.763,0.9667944,0.109557825,0.13745082
1764511191.9301834,-2.45686,1.4497,0.763,0.9667944,0.109557825,0.13745082
1764511191.9301834,-2.45686,1.4497,0.763,0.9667944,0.109557825,0.13745082
1764511191.9301834,-2.45686,1.4497,0.763,0.9667944,0.109557825,0.13745082
1764511191.9301834,-2.45686,1.4497,0.763,0.9667944,0.109557825,0.13745082
1764511191.9301834,-2.45686,1.4497,0.763,0.9667944,0.109557825,0.13745082
1764511191.9301834,-2.45686,1.4497,0.763,0.9667944,0.109557825,0.13745082
1764511191.9301834,-2.45686,1.4497,0.763,0.9667944,0.109557825,0.13745082
1764511191.9301834,-3.2809,1.09872,0.74774,0.966489225,0.11096163,0.13598598
1764511191.9301834,-3.2809,1.09872,0.74774,0.966489225,0.11096163,0.13598598
1764511191.9750652,-3.2809,1.09872,0.74774,0.966489225,0.11096163,0.13598598
1764511191.9750652,-3.2809,1.09872,0.74774,0.966489225,0.11096163,0.13598598
1764511191.9750652,-3.2809,1.09872,0.74774,0.966489225,0.11096163,0.13598598
1764511191.9750652,-3.2809,1.09872,0.74774,0.966489225,0.11096163,0.13598598
1764511191.9750652,-3.2809,1.09872,0.74774,0.966489225,0.11096163,0.13598598
1764511191.9750652,-3.2809,1.09872,0.74774,0.966489225,0.11096163,0.13598598
1764511191.9750652,-3.2809,1.09872,0.74774,0.966489225,0.11096163,0.13598598
1764511191.9750652,-3.2809,1.09872,0.74774,0.966489225,0.11096163,0.13598598
1764511191.9750652,-4.2728,1.19028,0.763,0.96667233,0.11169405,0.13574184
1764511191.9750652,-4.2728,1.19028,0.763,0.96667233,0.11169405,0.13574184
1764511191.9750652,-4.2728,1.19028,0.763,0.96667233,0.11169405,0.13574184
1764511191.9750652,-4.2728,1.19028,0.763,0.96667233,0.11169405,0.13574184
1764511191.9750652,-4.2728,1.19028,0.763,0.96667233,0.11169405,0.13574184
1764511191.9750652,-4.2728,1.19028,0.763,0.96667233,0.11169405,0.13574184
1764511191.9750652,-4.2728,1.19028,0.763,0.96667233,0.11169405,0.13574184
1764511191.9750652,-4.2728,1.19028,0.763,0.96667233,0.11169405,0.13574184
1764511191.9750652,-4.2728,1.19028,0.763,0.96667233,0.11169405,0.13574184
1764511191.9750652,-4.2728,1.19028,0.763,0.96667233,0.11169405,0.13574184
1764511191.9750652,-4.01338,1.00716,0.9156,0.966000945,0.111388875,0.13525356
1764511191.9750652,-4.01338,1.00716,0.9156,0.966000945,0.111388875,0.13525356
1764511191.9750652,-4.01338,1.00716,0.9156,0.966000945,0.111388875,0.13525356
1764511191.9750652,-4.01338,1.00716,0.9156,0.966000945,0.111388875,0.13525356
1764511192.0212097,-4.01338,1.00716,0.9156,0.966000945,0.111388875,0.13525356
1764511192.0212097,-4.01338,1.00716,0.9156,0.966000945,0.111388875,0.13525356
1764511192.0212097,-4.01338,1.00716,0.9156,0.966000945,0.111388875,0.13525356
1764511192.0212097,-4.01338,1.00716,0.9156,0.966000945,0.111388875,0.13525356
1764511192.0212097,-4.01338,1.00716,0.9156,0.966000945,0.111388875,0.13525356
1764511192.0212097,-4.01338,1.00716,0.9156,0.966000945,0.111388875,0.13525356
1764511192.0212097,-4.4254,1.25132,1.03768,0.96484128,0.11132784,0.135436665
1764511192.0212097,-4.4254,1.25132,1.03768,0.96484128,0.11132784,0.135436665
1764511192.0212097,-4.4254,1.25132,1.03768,0.96484128,0.11132784,0.135436665
1764511192.0212097,-4.4254,1.25132,1.03768,0.96484128,0.11132784,0.135436665
1764511192.0212097,-4.4254,1.25132,1.03768,0.96484128,0.11132784,0.135436665
1764511192.0212097,-4.4254,1.25132,1.03768,0.96484128,0.11132784,0.135436665
1764511192.0212097,-4.4254,1.25132,1.03768,0.96484128,0.11132784,0.135436665
1764511192.0212097,-4.4254,1.25132,1.03768,0.96484128,0.11132784,0.135436665
1764511192.0212097,-4.4254,1.25132,1.03768,0.96484128,0.11132784,0.135436665
1764511192.0212097,-4.4254,1.25132,1.03768,0.96484128,0.11132784,0.135436665
1764511192.0212097,-3.7387,1.526,1.03768,0.965878875,0.10949679,0.13684047
1764511192.0212097,-3.7387,1.526,1.03768,0.965878875,0.10949679,0.13684047
1764511192.0212097,-3.7387,1.526,1.03768,0.965878875,0.10949679,0.13684047
1764511192.0212097,-3.7387,1.526,1.03768,0.965878875,0.10949679,0.13684047
1764511192.0222478,-3.7387,1.526,1.03768,0.965878875,0.10949679,0.13684047
1764511192.0222478,-3.7387,1.526,1.03768,0.965878875,0.10949679,0.13684047
1764511192.067055,-3.7387,1.526,1.03768,0.965878875,0.10949679,0.13684047
1764511192.067055,-3.7387,1.526,1.03768,0.965878875,0.10949679,0.13684047
1764511192.067055,-3.7387,1.526,1.03768,0.965878875,0.10949679,0.13684047
1764511192.067055,-3.7387,1.526,1.03768,0.965878875,0.10949679,0.13684047
1764511192.067055,-3.1283,0.6409199999999999,0.82404,0.96398679,0.108337125,0.13623012
1764511192.067055,-3.1283,0.6409199999999999,0.82404,0.96398679,0.108337125,0.13623012
1764511192.067055,-3.1283,0.6409199999999999,0.82404,0.96398679,0.108337125,0.13623012
1764511192.067055,-3.1283,0.6409199999999999,0.82404,0.96398679,0.108337125,0.13623012
1764511192.067055,-3.1283,0.6409199999999999,0.82404,0.96398679,0.108337125,0.13623012
1764511192.067055,-3.1283,0.6409199999999999,0.82404,0.96398679,0.108337125,0.13623012
1764511192.067055,-3.1283,0.6409199999999999,0.82404,0.96398679,0.108337125,0.13623012
1764511192.068104,-3.1283,0.6409199999999999,0.82404,0.96398679,0.108337125,0.13623012
1764511192.068104,-3.1283,0.6409199999999999,0.82404,0.96398679,0.108337125,0.13623012
1764511192.068104,-3.1283,0.6409199999999999,0.82404,0.96398679,0.108337125,0.13623012
1764511192.069087,-2.79258,0.74774,0.3509799999999999,0.965512665,0.108825405,0.13647426
1764511192.069087,-2.79258,0.74774,0.3509799999999999,0.965512665,0.108825405,0.13647426
1764511192.069087,-2.79258,0.74774,0.3509799999999999,0.965512665,0.108825405,0.13647426
1764511192.069087,-2.79258,0.74774,0.3509799999999999,0.965512665,0.108825405,0.13647426
1764511192.069087,-2.79258,0.74774,0.3509799999999999,0.965512665,0.108825405,0.13647426
1764511192.069087,-2.79258,0.74774,0.3509799999999999,0.965512665,0.108825405,0.13647426
1764511192.069087,-2.79258,0.74774,0.3509799999999999,0.965512665,0.108825405,0.13647426
1764511192.069087,-2.79258,0.74774,0.3509799999999999,0.965512665,0.108825405,0.13647426
1764511192.069087,-2.79258,0.74774,0.3509799999999999,0.965512665,0.108825405,0.13647426
1764511192.069087,-2.79258,0.74774,0.3509799999999999,0.965512665,0.108825405,0.13647426
1764511192.1144829,-2.79258,1.54126,0.3051999999999999,0.96740475,0.108825405,0.13635219
1764511192.1144829,-2.79258,1.54126,0.3051999999999999,0.96740475,0.108825405,0.13635219
1764511192.1144829,-2.79258,1.54126,0.3051999999999999,0.96740475,0.108825405,0.13635219
1764511192.1144829,-2.79258,1.54126,0.3051999999999999,0.96740475,0.108825405,0.13635219
1764511192.1144829,-2.79258,1.54126,0.3051999999999999,0.96740475,0.108825405,0.13635219
1764511192.1144829,-2.79258,1.54126,0.3051999999999999,0.96740475,0.108825405,0.13635219
1764511192.1144829,-2.79258,1.54126,0.3051999999999999,0.96740475,0.108825405,0.13635219
1764511192.1144829,-2.79258,1.54126,0.3051999999999999,0.96740475,0.108825405,0.13635219
1764511192.1144829,-2.79258,1.54126,0.3051999999999999,0.96740475,0.108825405,0.13635219
1764511192.1144829,-2.79258,1.54126,0.3051999999999999,0.96740475,0.108825405,0.13635219
1764511192.1144829,-3.31142,1.51074,0.59514,0.967343715,0.110900595,0.136657365
1764511192.1144829,-3.31142,1.51074,0.59514,0.967343715,0.110900595,0.136657365
1764511192.1144829,-3.31142,1.51074,0.59514,0.967343715,0.110900595,0.136657365
1764511192.1144829,-3.31142,1.51074,0.59514,0.967343715,0.110900595,0.136657365
1764511192.1144829,-3.31142,1.51074,0.59514,0.967343715,0.110900595,0.136657365
1764511192.1144829,-3.31142,1.51074,0.59514,0.967343715,0.110900595,0.136657365
1764511192.1144829,-3.31142,1.51074,0.59514,0.967343715,0.110900595,0.136657365
1764511192.1144829,-3.31142,1.51074,0.59514,0.967343715,0.110900595,0.136657365
1764511192.1144829,-3.31142,1.51074,0.59514,0.967343715,0.110900595,0.136657365
1764511192.1144829,-3.31142,1.51074,0.59514,0.967343715,0.110900595,0.136657365
1764511192.1144829,-3.75396,1.31236,1.05294,0.96545163,0.11242647,0.13635219
1764511192.1144829,-3.75396,1.31236,1.05294,0.96545163,0.11242647,0.13635219
1764511192.1144829,-3.75396,1.31236,1.05294,0.96545163,0.11242647,0.13635219
1764511192.1144829,-3.75396,1.31236,1.05294,0.96545163,0.11242647,0.13635219
1764511192.1634336,-3.75396,1.31236,1.05294,0.96545163,0.11242647,0.13635219
1764511192.1634336,-3.75396,1.31236,1.05294,0.96545163,0.11242647,0.13635219
1764511192.1644356,-3.75396,1.31236,1.05294,0.96545163,0.11242647,0.13635219
1764511192.1644356,-3.75396,1.31236,1.05294,0.96545163,0.11242647,0.13635219
1764511192.1644356,-3.75396,1.31236,1.05294,0.96545163,0.11242647,0.13635219
1764511192.1644356,-3.75396,1.31236,1.05294,0.96545163,0.11242647,0.13635219
1764511192.1654372,-3.75396,0.3357199999999999,0.8087799999999999,0.963559545,0.111633015,0.136291155
1764511192.1654372,-3.75396,0.3357199999999999,0.8087799999999999,0.963559545,0.111633015,0.136291155
1764511192.1654372,-3.75396,0.3357199999999999,0.8087799999999999,0.963559545,0.111633015,0.136291155
1764511192.1654372,-3.75396,0.3357199999999999,0.8087799999999999,0.963559545,0.111633015,0.136291155
1764511192.1664357,-3.75396,0.3357199999999999,0.8087799999999999,0.963559545,0.111633015,0.136291155
1764511192.1664357,-3.75396,0.3357199999999999,0.8087799999999999,0.963559545,0.111633015,0.136291155
1764511192.1664357,-3.75396,0.3357199999999999,0.8087799999999999,0.963559545,0.111633015,0.136291155
1764511192.166951,-3.75396,0.3357199999999999,0.8087799999999999,0.963559545,0.111633015,0.136291155
1764511192.166951,-3.75396,0.3357199999999999,0.8087799999999999,0.963559545,0.111633015,0.136291155
1764511192.166951,-3.75396,0.3357199999999999,0.8087799999999999,0.963559545,0.111633015,0.136291155
1764511192.166951,-3.60136,0.10682,1.0682,0.963559545,0.111022665,0.137267715
1764511192.166951,-3.60136,0.10682,1.0682,0.963559545,0.111022665,0.137267715
1764511192.166951,-3.60136,0.10682,1.0682,0.963559545,0.111022665,0.137267715
1764511192.166951,-3.60136,0.10682,1.0682,0.963559545,0.111022665,0.137267715
1764511192.167994,-3.60136,0.10682,1.0682,0.963559545,0.111022665,0.137267715
1764511192.167994,-3.60136,0.10682,1.0682,0.963559545,0.111022665,0.137267715
1764511192.167994,-3.60136,0.10682,1.0682,0.963559545,0.111022665,0.137267715
1764511192.167994,-3.60136,0.10682,1.0682,0.963559545,0.111022665,0.137267715
1764511192.209086,-3.60136,0.10682,1.0682,0.963559545,0.111022665,0.137267715
1764511192.209086,-3.60136,0.10682,1.0682,0.963559545,0.111022665,0.137267715
1764511192.209086,-3.87604,0.19838,1.81594,0.964414035,0.11096163,0.13708461
1764511192.209086,-3.87604,0.19838,1.81594,0.964414035,0.11096163,0.13708461
1764511192.209086,-3.87604,0.19838,1.81594,0.964414035,0.11096163,0.13708461
1764511192.209086,-3.87604,0.19838,1.81594,0.964414035,0.11096163,0.13708461
1764511192.209086,-3.87604,0.19838,1.81594,0.964414035,0.11096163,0.13708461
1764511192.209086,-3.87604,0.19838,1.81594,0.964414035,0.11096163,0.13708461
1764511192.209086,-3.87604,0.19838,1.81594,0.964414035,0.11096163,0.13708461
1764511192.209086,-3.87604,0.19838,1.81594,0.964414035,0.11096163,0.13708461
1764511192.209086,-3.87604,0.19838,1.81594,0.964414035,0.11096163,0.13708461
1764511192.209086,-3.87604,0.19838,1.81594,0.964414035,0.11096163,0.13708461
1764511192.209086,-3.78448,-0.19838,0.9156,0.965024385,0.11132784,0.13610805
1764511192.209086,-3.78448,-0.19838,0.9156,0.965024385,0.11132784,0.13610805
1764511192.209086,-3.78448,-0.19838,0.9156,0.965024385,0.11132784,0.13610805
1764511192.209086,-3.78448,-0.19838,0.9156,0.965024385,0.11132784,0.13610805
1764511192.209086,-3.78448,-0.19838,0.9156,0.965024385,0.11132784,0.13610805
1764511192.209086,-3.78448,-0.19838,0.9156,0.965024385,0.11132784,0.13610805
1764511192.209086,-3.78448,-0.19838,0.9156,0.965024385,0.11132784,0.13610805
1764511192.209086,-3.78448,-0.19838,0.9156,0.965024385,0.11132784,0.13610805
1764511192.209086,-3.78448,-0.19838,0.9156,0.965024385,0.11132784,0.13610805
1764511192.209086,-3.78448,-0.19838,0.9156,0.965024385,0.11132784,0.13610805
1764511192.254516,-4.28806,0.09156,0.79352,0.966000945,0.110900595,0.135924945
1764511192.254516,-4.28806,0.09156,0.79352,0.966000945,0.110900595,0.135924945
1764511192.254516,-4.28806,0.09156,0.79352,0.966000945,0.110900595,0.135924945
1764511192.254516,-4.28806,0.09156,0.79352,0.966000945,0.110900595,0.135924945
1764511192.254516,-4.28806,0.09156,0.79352,0.966000945,0.110900595,0.135924945
1764511192.2555118,-4.28806,0.09156,0.79352,0.966000945,0.110900595,0.135924945
1764511192.2555118,-4.28806,0.09156,0.79352,0.966000945,0.110900595,0.135924945
1764511192.2555118,-4.28806,0.09156,0.79352,0.966000945,0.110900595,0.135924945
1764511192.2555118,-4.28806,0.09156,0.79352,0.966000945,0.110900595,0.135924945
1764511192.2555118,-4.28806,0.09156,0.79352,0.966000945,0.110900595,0.135924945
1764511192.256512,-4.15072,0.42728,0.7019599999999999,0.9667944,0.110778525,0.134826315
1764511192.256512,-4.15072,0.42728,0.7019599999999999,0.9667944,0.110778525,0.134826315
1764511192.256512,-4.15072,0.42728,0.7019599999999999,0.9667944,0.110778525,0.134826315
1764511192.2570252,-4.15072,0.42728,0.7019599999999999,0.9667944,0.110778525,0.134826315
1764511192.2570252,-4.15072,0.42728,0.7019599999999999,0.9667944,0.110778525,0.134826315
1764511192.2570252,-4.15072,0.42728,0.7019599999999999,0.9667944,0.110778525,0.134826315
1764511192.2570252,-4.15072,0.42728,0.7019599999999999,0.9667944,0.110778525,0.134826315
1764511192.2580593,-4.15072,0.42728,0.7019599999999999,0.9667944,0.110778525,0.134826315
1764511192.2580593,-4.15072,0.42728,0.7019599999999999,0.9667944,0.110778525,0.134826315
1764511192.2590652,-4.15072,0.42728,0.7019599999999999,0.9667944,0.110778525,0.134826315
1764511192.2590652,-3.99812,1.12924,1.26658,0.967221645,0.110290245,0.134704245
1764511192.259617,-3.99812,1.12924,1.26658,0.967221645,0.110290245,0.134704245
1764511192.259617,-3.99812,1.12924,1.26658,0.967221645,0.110290245,0.134704245
1764511192.259617,-3.99812,1.12924,1.26658,0.967221645,0.110290245,0.134704245
1764511192.2995818,-3.99812,1.12924,1.26658,0.967221645,0.110290245,0.134704245
1764511192.2995818,-3.99812,1.12924,1.26658,0.967221645,0.110290245,0.134704245
1764511192.2995818,-3.99812,1.12924,1.26658,0.967221645,0.110290245,0.134704245
1764511192.2995818,-3.99812,1.12924,1.26658,0.967221645,0.110290245,0.134704245
1764511192.2995818,-3.99812,1.12924,1.26658,0.967221645,0.110290245,0.134704245
1764511192.2995818,-3.99812,1.12924,1.26658,0.967221645,0.110290245,0.134704245
1764511192.2995818,-4.31858,1.526,1.17502,0.967587855,0.108703335,0.134826315
1764511192.2995818,-4.31858,1.526,1.17502,0.967587855,0.108703335,0.134826315
1764511192.2995818,-4.31858,1.526,1.17502,0.967587855,0.108703335,0.134826315
1764511192.2995818,-4.31858,1.526,1.17502,0.967587855,0.108703335,0.134826315
1764511192.2995818,-4.31858,1.526,1.17502,0.967587855,0.108703335,0.134826315
1764511192.2995818,-4.31858,1.526,1.17502,0.967587855,0.108703335,0.134826315
1764511192.3006167,-4.31858,1.526,1.17502,0.967587855,0.108703335,0.134826315
1764511192.3006167,-4.31858,1.526,1.17502,0.967587855,0.108703335,0.134826315
1764511192.3006167,-4.31858,1.526,1.17502,0.967587855,0.108703335,0.134826315
1764511192.3006167,-4.31858,1.526,1.17502,0.967587855,0.108703335,0.134826315
1764511192.3006167,-3.61662,1.63282,1.32762,0.966123015,0.108337125,0.134582175
1764511192.3006167,-3.61662,1.63282,1.32762,0.966123015,0.108337125,0.134582175
1764511192.3006167,-3.61662,1.63282,1.32762,0.966123015,0.108337125,0.134582175
1764511192.3006167,-3.61662,1.63282,1.32762,0.966123015,0.108337125,0.134582175
1764511192.3006167,-3.61662,1.63282,1.32762,0.966123015,0.108337125,0.134582175
1764511192.3016262,-3.61662,1.63282,1.32762,0.966123015,0.108337125,0.134582175
1764511192.3016262,-3.61662,1.63282,1.32762,0.966123015,0.108337125,0.134582175
1764511192.3016262,-3.61662,1.63282,1.32762,0.966123015,0.108337125,0.134582175
1764511192.3497365,-3.61662,1.63282,1.32762,0.966123015,0.108337125,0.134582175
1764511192.350737,-3.61662,1.63282,1.32762,0.966123015,0.108337125,0.134582175
1764511192.350737,-2.99096,1.19028,0.93086,0.96520749,0.10717746,0.13513149
1764511192.350737,-2.99096,1.19028,0.93086,0.96520749,0.10717746,0.13513149
1764511192.350737,-2.99096,1.19028,0.93086,0.96520749,0.10717746,0.13513149
1764511192.350737,-2.99096,1.19028,0.93086,0.96520749,0.10717746,0.13513149
1764511192.35173,-2.99096,1.19028,0.93086,0.96520749,0.10717746,0.13513149
1764511192.35173,-2.99096,1.19028,0.93086,0.96520749,0.10717746,0.13513149
1764511192.35173,-2.99096,1.19028,0.93086,0.96520749,0.10717746,0.13513149
1764511192.352417,-2.99096,1.19028,0.93086,0.96520749,0.10717746,0.13513149
1764511192.352417,-2.99096,1.19028,0.93086,0.96520749,0.10717746,0.13513149
1764511192.35273,-2.99096,1.19028,0.93086,0.96520749,0.10717746,0.13513149
1764511192.35273,-2.8994,0.94612,0.93086,0.96520749,0.10656711,0.13525356
1764511192.35273,-2.8994,0.94612,0.93086,0.96520749,0.10656711,0.13525356
1764511192.35273,-2.8994,0.94612,0.93086,0.96520749,0.10656711,0.13525356
1764511192.35273,-2.8994,0.94612,0.93086,0.96520749,0.10656711,0.13525356
1764511192.35273,-2.8994,0.94612,0.93086,0.96520749,0.10656711,0.13525356
1764511192.35273,-2.8994,0.94612,0.93086,0.96520749,0.10656711,0.13525356
1764511192.35273,-2.8994,0.94612,0.93086,0.96520749,0.10656711,0.13525356
1764511192.35273,-2.8994,0.94612,0.93086,0.96520749,0.10656711,0.13525356
1764511192.35273,-2.8994,0.94612,0.93086,0.96520749,0.10656711,0.13525356
1764511192.35273,-2.8994,0.94612,0.93086,0.96520749,0.10656711,0.13525356
1764511192.35273,-3.3572,1.09872,0.5341,0.966611295,0.10803195,0.135070455
1764511192.3537402,-3.3572,1.09872,0.5341,0.966611295,0.10803195,0.135070455
1764511192.397245,-3.3572,1.09872,0.5341,0.966611295,0.10803195,0.135070455
1764511192.397245,-3.3572,1.09872,0.5341,0.966611295,0.10803195,0.135070455
1764511192.397245,-3.3572,1.09872,0.5341,0.966611295,0.10803195,0.135070455
1764511192.397245,-3.3572,1.09872,0.5341,0.966611295,0.10803195,0.135070455
1764511192.397245,-3.3572,1.09872,0.5341,0.966611295,0.10803195,0.135070455
1764511192.397245,-3.3572,1.09872,0.5341,0.966611295,0.10803195,0.135070455
1764511192.397245,-3.3572,1.09872,0.5341,0.966611295,0.10803195,0.135070455
1764511192.397245,-3.3572,1.09872,0.5341,0.966611295,0.10803195,0.135070455
1764511192.397245,-3.6624,1.17502,0.36624,0.9667944,0.10925265,0.13525356
1764511192.397245,-3.6624,1.17502,0.36624,0.9667944,0.10925265,0.13525356
1764511192.397245,-3.6624,1.17502,0.36624,0.9667944,0.10925265,0.13525356
1764511192.397245,-3.6624,1.17502,0.36624,0.9667944,0.10925265,0.13525356
1764511192.3982894,-3.6624,1.17502,0.36624,0.9667944,0.10925265,0.13525356
1764511192.3982894,-3.6624,1.17502,0.36624,0.9667944,0.10925265,0.13525356
1764511192.3982894,-3.6624,1.17502,0.36624,0.9667944,0.10925265,0.13525356
1764511192.3982894,-3.6624,1.17502,0.36624,0.9667944,0.10925265,0.13525356
1764511192.3982894,-3.6624,1.17502,0.36624,0.9667944,0.10925265,0.13525356
1764511192.3992834,-3.6624,1.17502,0.36624,0.9667944,0.10925265,0.13525356
1764511192.3992834,-4.1202,1.35814,0.36624,0.966123015,0.110534385,0.135192525
1764511192.3992834,-4.1202,1.35814,0.36624,0.966123015,0.110534385,0.135192525
1764511192.3992834,-4.1202,1.35814,0.36624,0.966123015,0.110534385,0.135192525
1764511192.3992834,-4.1202,1.35814,0.36624,0.966123015,0.110534385,0.135192525
1764511192.4446251,-4.1202,1.35814,0.36624,0.966123015,0.110534385,0.135192525
1764511192.4446251,-4.1202,1.35814,0.36624,0.966123015,0.110534385,0.135192525
1764511192.4446251,-4.1202,1.35814,0.36624,0.966123015,0.110534385,0.135192525
1764511192.4446251,-4.1202,1.35814,0.36624,0.966123015,0.110534385,0.135192525
1764511192.4446251,-4.1202,1.35814,0.36624,0.966123015,0.110534385,0.135192525
1764511192.4446251,-4.1202,1.35814,0.36624,0.966123015,0.110534385,0.135192525
1764511192.4446251,-4.39488,1.32762,0.01526,0.966123015,0.11047335,0.13525356
1764511192.4446251,-4.39488,1.32762,0.01526,0.966123015,0.11047335,0.13525356
1764511192.4446251,-4.39488,1.32762,0.01526,0.966123015,0.11047335,0.13525356
1764511192.4446251,-4.39488,1.32762,0.01526,0.966123015,0.11047335,0.13525356
1764511192.4446251,-4.39488,1.32762,0.01526,0.966123015,0.11047335,0.13525356
1764511192.4446251,-4.39488,1.32762,0.01526,0.966123015,0.11047335,0.13525356
1764511192.4446251,-4.39488,1.32762,0.01526,0.966123015,0.11047335,0.13525356
1764511192.4446251,-4.39488,1.32762,0.01526,0.966123015,0.11047335,0.13525356
1764511192.4446251,-4.39488,1.32762,0.01526,0.966123015,0.11047335,0.13525356
1764511192.4446251,-4.39488,1.32762,0.01526,0.966123015,0.11047335,0.13525356
1764511192.4446251,-4.51696,1.43444,-0.03052,0.96545163,0.10949679,0.135802875
1764511192.4446251,-4.51696,1.43444,-0.03052,0.96545163,0.10949679,0.135802875
1764511192.4446251,-4.51696,1.43444,-0.03052,0.96545163,0.10949679,0.135802875
1764511192.4446251,-4.51696,1.43444,-0.03052,0.96545163,0.10949679,0.135802875
1764511192.4446251,-4.51696,1.43444,-0.03052,0.96545163,0.10949679,0.135802875
1764511192.4446251,-4.51696,1.43444,-0.03052,0.96545163,0.10949679,0.135802875
1764511192.4446251,-4.51696,1.43444,-0.03052,0.96545163,0.10949679,0.135802875
1764511192.4446251,-4.51696,1.43444,-0.03052,0.96545163,0.10949679,0.135802875
1764511192.489284,-4.51696,1.43444,-0.03052,0.96545163,0.10949679,0.135802875
1764511192.4908252,-4.51696,1.43444,-0.03052,0.96545163,0.10949679,0.135802875
1764511192.4908252,-3.86078,1.19028,-0.3815,0.96581784,0.10961886,0.13537563
1764511192.4908252,-3.86078,1.19028,-0.3815,0.96581784,0.10961886,0.13537563
1764511192.491846,-3.86078,1.19028,-0.3815,0.96581784,0.10961886,0.13537563
1764511192.491846,-3.86078,1.19028,-0.3815,0.96581784,0.10961886,0.13537563
1764511192.491846,-3.86078,1.19028,-0.3815,0.96581784,0.10961886,0.13537563
1764511192.4928727,-3.86078,1.19028,-0.3815,0.96581784,0.10961886,0.13537563
1764511192.4928727,-3.86078,1.19028,-0.3815,0.96581784,0.10961886,0.13537563
1764511192.4928727,-3.86078,1.19028,-0.3815,0.96581784,0.10961886,0.13537563
1764511192.4928727,-3.86078,1.19028,-0.3815,0.96581784,0.10961886,0.13537563
1764511192.4928727,-3.86078,1.19028,-0.3815,0.96581784,0.10961886,0.13537563
1764511192.4928727,-3.70818,0.97664,-0.1525999999999999,0.965878875,0.11035128,0.135802875
1764511192.49388,-3.70818,0.97664,-0.1525999999999999,0.965878875,0.11035128,0.135802875
1764511192.49388,-3.70818,0.97664,-0.1525999999999999,0.965878875,0.11035128,0.135802875
1764511192.49388,-3.70818,0.97664,-0.1525999999999999,0.965878875,0.11035128,0.135802875
1764511192.49388,-3.70818,0.97664,-0.1525999999999999,0.965878875,0.11035128,0.135802875
1764511192.49388,-3.70818,0.97664,-0.1525999999999999,0.965878875,0.11035128,0.135802875
1764511192.49388,-3.70818,0.97664,-0.1525999999999999,0.965878875,0.11035128,0.135802875
1764511192.49388,-3.70818,0.97664,-0.1525999999999999,0.965878875,0.11035128,0.135802875
1764511192.49388,-3.70818,0.97664,-0.1525999999999999,0.965878875,0.11035128,0.135802875
1764511192.49388,-3.70818,0.97664,-0.1525999999999999,0.965878875,0.11035128,0.135802875
1764511192.4948752,-3.37246,0.94612,0.3051999999999999,0.965756805,0.109557825,0.13586391
1764511192.4948752,-3.37246,0.94612,0.3051999999999999,0.965756805,0.109557825,0.13586391
1764511192.5349698,-3.37246,0.94612,0.3051999999999999,0.965756805,0.109557825,0.13586391
1764511192.5349698,-3.37246,0.94612,0.3051999999999999,0.965756805,0.109557825,0.13586391
1764511192.5349698,-3.37246,0.94612,0.3051999999999999,0.965756805,0.109557825,0.13586391
1764511192.5349698,-3.37246,0.94612,0.3051999999999999,0.965756805,0.109557825,0.13586391
1764511192.5349698,-3.37246,0.94612,0.3051999999999999,0.965756805,0.109557825,0.13586391
1764511192.5349698,-3.37246,0.94612,0.3051999999999999,0.965756805,0.109557825,0.13586391
1764511192.5349698,-3.37246,0.94612,0.3051999999999999,0.965756805,0.109557825,0.13586391
1764511192.5349698,-3.37246,0.94612,0.3051999999999999,0.965756805,0.109557825,0.13586391
1764511192.5349698,-3.60136,0.9003399999999999,0.6867,0.9667944,0.10974093,0.135680805
1764511192.5349698,-3.60136,0.9003399999999999,0.6867,0.9667944,0.10974093,0.135680805
1764511192.5349698,-3.60136,0.9003399999999999,0.6867,0.9667944,0.10974093,0.135680805
1764511192.5349698,-3.60136,0.9003399999999999,0.6867,0.9667944,0.10974093,0.135680805
1764511192.5349698,-3.60136,0.9003399999999999,0.6867,0.9667944,0.10974093,0.135680805
1764511192.5349698,-3.60136,0.9003399999999999,0.6867,0.9667944,0.10974093,0.135680805
1764511192.5349698,-3.60136,0.9003399999999999,0.6867,0.9667944,0.10974093,0.135680805
1764511192.5349698,-3.60136,0.9003399999999999,0.6867,0.9667944,0.10974093,0.135680805
1764511192.5349698,-3.60136,0.9003399999999999,0.6867,0.9667944,0.10974093,0.135680805
1764511192.5349698,-3.60136,0.9003399999999999,0.6867,0.9667944,0.10974093,0.135680805
1764511192.5349698,-3.75396,1.63282,0.8698199999999999,0.967221645,0.11010714,0.13561977
1764511192.5365355,-3.75396,1.63282,0.8698199999999999,0.967221645,0.11010714,0.13561977
1764511192.5365355,-3.75396,1.63282,0.8698199999999999,0.967221645,0.11010714,0.13561977
1764511192.5365355,-3.75396,1.63282,0.8698199999999999,0.967221645,0.11010714,0.13561977
1764511192.5365355,-3.75396,1.63282,0.8698199999999999,0.967221645,0.11010714,0.13561977
1764511192.5365355,-3.75396,1.63282,0.8698199999999999,0.967221645,0.11010714,0.13561977
1764511192.584054,-3.75396,1.63282,0.8698199999999999,0.967221645,0.11010714,0.13561977
1764511192.584054,-3.75396,1.63282,0.8698199999999999,0.967221645,0.11010714,0.13561977
1764511192.584054,-3.75396,1.63282,0.8698199999999999,0.967221645,0.11010714,0.13561977
1764511192.584054,-3.75396,1.63282,0.8698199999999999,0.967221645,0.11010714,0.13561977
1764511192.584054,-3.69292,2.02958,0.9003399999999999,0.9667944,0.110046105,0.136047015
1764511192.584054,-3.69292,2.02958,0.9003399999999999,0.9667944,0.110046105,0.136047015
1764511192.584054,-3.69292,2.02958,0.9003399999999999,0.9667944,0.110046105,0.136047015
1764511192.584054,-3.69292,2.02958,0.9003399999999999,0.9667944,0.110046105,0.136047015
1764511192.584054,-3.69292,2.02958,0.9003399999999999,0.9667944,0.110046105,0.136047015
1764511192.584054,-3.69292,2.02958,0.9003399999999999,0.9667944,0.110046105,0.136047015
1764511192.5850997,-3.69292,2.02958,0.9003399999999999,0.9667944,0.110046105,0.136047015
1764511192.5850997,-3.69292,2.02958,0.9003399999999999,0.9667944,0.110046105,0.136047015
1764511192.5850997,-3.69292,2.02958,0.9003399999999999,0.9667944,0.110046105,0.136047015
1764511192.5850997,-3.69292,2.02958,0.9003399999999999,0.9667944,0.110046105,0.136047015
1764511192.5850997,-3.57084,1.6022999999999998,0.65618,0.965512665,0.110778525,0.13598598
1764511192.5850997,-3.57084,1.6022999999999998,0.65618,0.965512665,0.110778525,0.13598598
1764511192.5850997,-3.57084,1.6022999999999998,0.65618,0.965512665,0.110778525,0.13598598
1764511192.5850997,-3.57084,1.6022999999999998,0.65618,0.965512665,0.110778525,0.13598598
1764511192.5850997,-3.57084,1.6022999999999998,0.65618,0.965512665,0.110778525,0.13598598
1764511192.5850997,-3.57084,1.6022999999999998,0.65618,0.965512665,0.110778525,0.13598598
1764511192.5850997,-3.57084,1.6022999999999998,0.65618,0.965512665,0.110778525,0.13598598
1764511192.5850997,-3.57084,1.6022999999999998,0.65618,0.965512665,0.110778525,0.13598598
1764511192.5850997,-3.57084,1.6022999999999998,0.65618,0.965512665,0.110778525,0.13598598
1764511192.5850997,-3.57084,1.6022999999999998,0.65618,0.965512665,0.110778525,0.13598598
1764511192.629403,-3.55558,1.09872,0.54936,0.96642819,0.110168175,0.136413225
1764511192.629403,-3.55558,1.09872,0.54936,0.96642819,0.110168175,0.136413225
1764511192.629403,-3.55558,1.09872,0.54936,0.96642819,0.110168175,0.136413225
1764511192.629403,-3.55558,1.09872,0.54936,0.96642819,0.110168175,0.136413225
1764511192.629403,-3.55558,1.09872,0.54936,0.96642819,0.110168175,0.136413225
1764511192.629403,-3.55558,1.09872,0.54936,0.96642819,0.110168175,0.136413225
1764511192.629403,-3.55558,1.09872,0.54936,0.96642819,0.110168175,0.136413225
1764511192.629403,-3.55558,1.09872,0.54936,0.96642819,0.110168175,0.136413225
1764511192.629403,-3.55558,1.09872,0.54936,0.96642819,0.110168175,0.136413225
1764511192.629403,-3.55558,1.09872,0.54936,0.96642819,0.110168175,0.136413225
1764511192.6299422,-3.18934,0.8698199999999999,-0.42728,0.96581784,0.11071749,0.136169085
1764511192.63051,-3.18934,0.8698199999999999,-0.42728,0.96581784,0.11071749,0.136169085
1764511192.63051,-3.18934,0.8698199999999999,-0.42728,0.96581784,0.11071749,0.136169085
1764511192.63051,-3.18934,0.8698199999999999,-0.42728,0.96581784,0.11071749,0.136169085
1764511192.63051,-3.18934,0.8698199999999999,-0.42728,0.96581784,0.11071749,0.136169085
1764511192.63051,-3.18934,0.8698199999999999,-0.42728,0.96581784,0.11071749,0.136169085
1764511192.63051,-3.18934,0.8698199999999999,-0.42728,0.96581784,0.11071749,0.136169085
1764511192.63051,-3.18934,0.8698199999999999,-0.42728,0.96581784,0.11071749,0.136169085
1764511192.63051,-3.18934,0.8698199999999999,-0.42728,0.96581784,0.11071749,0.136169085
1764511192.63051,-3.18934,0.8698199999999999,-0.42728,0.96581784,0.11071749,0.136169085
1764511192.6784306,-3.83026,1.26658,-0.6409199999999999,0.968076135,0.11181612,0.13647426
1764511192.6784306,-3.83026,1.26658,-0.6409199999999999,0.968076135,0.11181612,0.13647426
1764511192.6784306,-3.83026,1.26658,-0.6409199999999999,0.968076135,0.11181612,0.13647426
1764511192.6784306,-3.83026,1.26658,-0.6409199999999999,0.968076135,0.11181612,0.13647426
1764511192.6784306,-3.83026,1.26658,-0.6409199999999999,0.968076135,0.11181612,0.13647426
1764511192.6784306,-3.83026,1.26658,-0.6409199999999999,0.968076135,0.11181612,0.13647426
1764511192.6784306,-3.83026,1.26658,-0.6409199999999999,0.968076135,0.11181612,0.13647426
1764511192.6784306,-3.83026,1.26658,-0.6409199999999999,0.968076135,0.11181612,0.13647426
1764511192.679472,-3.83026,1.26658,-0.6409199999999999,0.968076135,0.11181612,0.13647426
1764511192.679472,-3.83026,1.26658,-0.6409199999999999,0.968076135,0.11181612,0.13647426
1764511192.679472,-3.57084,1.78542,0.24416,0.9680151,0.11291475,0.136657365
1764511192.679472,-3.57084,1.78542,0.24416,0.9680151,0.11291475,0.136657365
1764511192.679472,-3.57084,1.78542,0.24416,0.9680151,0.11291475,0.136657365
1764511192.679472,-3.57084,1.78542,0.24416,0.9680151,0.11291475,0.136657365
1764511192.679472,-3.57084,1.78542,0.24416,0.9680151,0.11291475,0.136657365
1764511192.679472,-3.57084,1.78542,0.24416,0.9680151,0.11291475,0.136657365
1764511192.679472,-3.57084,1.78542,0.24416,0.9680151,0.11291475,0.136657365
1764511192.679472,-3.57084,1.78542,0.24416,0.9680151,0.11291475,0.136657365
1764511192.679472,-3.57084,1.78542,0.24416,0.9680151,0.11291475,0.136657365
1764511192.679472,-3.57084,1.78542,0.24416,0.9680151,0.11291475,0.136657365
1764511192.679472,-3.64714,2.01432,0.82404,0.965512665,0.113341995,0.136169085
1764511192.679472,-3.64714,2.01432,0.82404,0.965512665,0.113341995,0.136169085
1764511192.679472,-3.64714,2.01432,0.82404,0.965512665,0.113341995,0.136169085
1764511192.679472,-3.64714,2.01432,0.82404,0.965512665,0.113341995,0.136169085
1764511192.7232573,-3.64714,2.01432,0.82404,0.965512665,0.113341995,0.136169085
1764511192.7232573,-3.64714,2.01432,0.82404,0.965512665,0.113341995,0.136169085
1764511192.7232573,-3.64714,2.01432,0.82404,0.965512665,0.113341995,0.136169085
1764511192.7237706,-3.64714,2.01432,0.82404,0.965512665,0.113341995,0.136169085
1764511192.7237706,-3.64714,2.01432,0.82404,0.965512665,0.113341995,0.136169085
1764511192.7237706,-3.64714,2.01432,0.82404,0.965512665,0.113341995,0.136169085
1764511192.7237706,-3.6624,1.8006799999999998,1.26658,0.964353,0.11267061,0.13623012
1764511192.7237706,-3.6624,1.8006799999999998,1.26658,0.964353,0.11267061,0.13623012
1764511192.7237706,-3.6624,1.8006799999999998,1.26658,0.964353,0.11267061,0.13623012
1764511192.7237706,-3.6624,1.8006799999999998,1.26658,0.964353,0.11267061,0.13623012
1764511192.7237706,-3.6624,1.8006799999999998,1.26658,0.964353,0.11267061,0.13623012
1764511192.7237706,-3.6624,1.8006799999999998,1.26658,0.964353,0.11267061,0.13623012
1764511192.7237706,-3.6624,1.8006799999999998,1.26658,0.964353,0.11267061,0.13623012
1764511192.7237706,-3.6624,1.8006799999999998,1.26658,0.964353,0.11267061,0.13623012
1764511192.7237706,-3.6624,1.8006799999999998,1.26658,0.964353,0.11267061,0.13623012
1764511192.7237706,-3.6624,1.8006799999999998,1.26658,0.964353,0.11267061,0.13623012
1764511192.7237706,-2.83836,1.31236,1.3734,0.96386472,0.11132784,0.13696254
1764511192.7237706,-2.83836,1.31236,1.3734,0.96386472,0.11132784,0.13696254
1764511192.7237706,-2.83836,1.31236,1.3734,0.96386472,0.11132784,0.13696254
1764511192.7237706,-2.83836,1.31236,1.3734,0.96386472,0.11132784,0.13696254
1764511192.7237706,-2.83836,1.31236,1.3734,0.96386472,0.11132784,0.13696254
1764511192.7237706,-2.83836,1.31236,1.3734,0.96386472,0.11132784,0.13696254
1764511192.7243164,-2.83836,1.31236,1.3734,0.96386472,0.11132784,0.13696254
1764511192.7243164,-2.83836,1.31236,1.3734,0.96386472,0.11132784,0.13696254
1764511192.7725089,-2.83836,1.31236,1.3734,0.96386472,0.11132784,0.13696254
1764511192.7725089,-2.83836,1.31236,1.3734,0.96386472,0.11132784,0.13696254
1764511192.7725089,-2.60946,0.88508,1.8006799999999998,0.96484128,0.11010714,0.13720668
1764511192.7725089,-2.60946,0.88508,1.8006799999999998,0.96484128,0.11010714,0.13720668
1764511192.7725089,-2.60946,0.88508,1.8006799999999998,0.96484128,0.11010714,0.13720668
1764511192.7725089,-2.60946,0.88508,1.8006799999999998,0.96484128,0.11010714,0.13720668
1764511192.7725089,-2.60946,0.88508,1.8006799999999998,0.96484128,0.11010714,0.13720668
1764511192.7725089,-2.60946,0.88508,1.8006799999999998,0.96484128,0.11010714,0.13720668
1764511192.7725089,-2.60946,0.88508,1.8006799999999998,0.96484128,0.11010714,0.13720668
1764511192.7725089,-2.60946,0.88508,1.8006799999999998,0.96484128,0.11010714,0.13720668
1764511192.7725089,-2.60946,0.88508,1.8006799999999998,0.96484128,0.11010714,0.13720668
1764511192.7725089,-2.60946,0.88508,1.8006799999999998,0.96484128,0.11010714,0.13720668
1764511192.7725089,-2.53316,1.03768,2.15166,0.965024385,0.110412315,0.13769496
1764511192.7725089,-2.53316,1.03768,2.15166,0.965024385,0.110412315,0.13769496
1764511192.7725089,-2.53316,1.03768,2.15166,0.965024385,0.110412315,0.13769496
1764511192.7725089,-2.53316,1.03768,2.15166,0.965024385,0.110412315,0.13769496
1764511192.7725089,-2.53316,1.03768,2.15166,0.965024385,0.110412315,0.13769496
1764511192.7725089,-2.53316,1.03768,2.15166,0.965024385,0.110412315,0.13769496
1764511192.7725089,-2.53316,1.03768,2.15166,0.965024385,0.110412315,0.13769496
1764511192.7725089,-2.53316,1.03768,2.15166,0.965024385,0.110412315,0.13769496
1764511192.7725089,-2.53316,1.03768,2.15166,0.965024385,0.110412315,0.13769496
1764511192.7725089,-2.53316,1.03768,2.15166,0.965024385,0.110412315,0.13769496
1764511192.7725089,-3.21986,0.77826,1.92276,0.96593991,0.1110837,0.13696254
1764511192.7725089,-3.21986,0.77826,1.92276,0.96593991,0.1110837,0.13696254
1764511192.8179471,-3.21986,0.77826,1.92276,0.96593991,0.1110837,0.13696254
1764511192.8179471,-3.21986,0.77826,1.92276,0.96593991,0.1110837,0.13696254
1764511192.8179471,-3.21986,0.77826,1.92276,0.96593991,0.1110837,0.13696254
1764511192.8189485,-3.21986,0.77826,1.92276,0.96593991,0.1110837,0.13696254
1764511192.8189485,-3.21986,0.77826,1.92276,0.96593991,0.1110837,0.13696254
1764511192.8189485,-3.21986,0.77826,1.92276,0.96593991,0.1110837,0.13696254
1764511192.8189485,-3.21986,0.77826,1.92276,0.96593991,0.1110837,0.13696254
1764511192.8189485,-3.21986,0.77826,1.92276,0.96593991,0.1110837,0.13696254
1764511192.8189485,-4.28806,0.8087799999999999,1.49548,0.9667944,0.11096163,0.136535295
1764511192.8189485,-4.28806,0.8087799999999999,1.49548,0.9667944,0.11096163,0.136535295
1764511192.8189485,-4.28806,0.8087799999999999,1.49548,0.9667944,0.11096163,0.136535295
1764511192.8189485,-4.28806,0.8087799999999999,1.49548,0.9667944,0.11096163,0.136535295
1764511192.8189485,-4.28806,0.8087799999999999,1.49548,0.9667944,0.11096163,0.136535295
1764511192.8189485,-4.28806,0.8087799999999999,1.49548,0.9667944,0.11096163,0.136535295
1764511192.8189485,-4.28806,0.8087799999999999,1.49548,0.9667944,0.11096163,0.136535295
1764511192.8189485,-4.28806,0.8087799999999999,1.49548,0.9667944,0.11096163,0.136535295
1764511192.8189485,-4.28806,0.8087799999999999,1.49548,0.9667944,0.11096163,0.136535295
1764511192.8189485,-4.28806,0.8087799999999999,1.49548,0.9667944,0.11096163,0.136535295
1764511192.8189485,-4.10494,1.11398,0.8698199999999999,0.96752682,0.111022665,0.136169085
1764511192.8189485,-4.10494,1.11398,0.8698199999999999,0.96752682,0.111022665,0.136169085
1764511192.8189485,-4.10494,1.11398,0.8698199999999999,0.96752682,0.111022665,0.136169085
1764511192.8189485,-4.10494,1.11398,0.8698199999999999,0.96752682,0.111022665,0.136169085
1764511192.863904,-4.10494,1.11398,0.8698199999999999,0.96752682,0.111022665,0.136169085
1764511192.863904,-4.10494,1.11398,0.8698199999999999,0.96752682,0.111022665,0.136169085
1764511192.863904,-4.10494,1.11398,0.8698199999999999,0.96752682,0.111022665,0.136169085
1764511192.863904,-4.10494,1.11398,0.8698199999999999,0.96752682,0.111022665,0.136169085
1764511192.863904,-4.10494,1.11398,0.8698199999999999,0.96752682,0.111022665,0.136169085
1764511192.863904,-4.10494,1.11398,0.8698199999999999,0.96752682,0.111022665,0.136169085
1764511192.863904,-4.41014,1.3734,0.71722,0.96642819,0.10998507,0.135558735
1764511192.863904,-4.41014,1.3734,0.71722,0.96642819,0.10998507,0.135558735
1764511192.863904,-4.41014,1.3734,0.71722,0.96642819,0.10998507,0.135558735
1764511192.863904,-4.41014,1.3734,0.71722,0.96642819,0.10998507,0.135558735
1764511192.863904,-4.41014,1.3734,0.71722,0.96642819,0.10998507,0.135558735
1764511192.863904,-4.41014,1.3734,0.71722,0.96642819,0.10998507,0.135558735
1764511192.863904,-4.41014,1.3734,0.71722,0.96642819,0.10998507,0.135558735
1764511192.863904,-4.41014,1.3734,0.71722,0.96642819,0.10998507,0.135558735
1764511192.863904,-4.41014,1.3734,0.71722,0.96642819,0.10998507,0.135558735
1764511192.863904,-4.41014,1.3734,0.71722,0.96642819,0.10998507,0.135558735
1764511192.863904,-3.09778,2.19744,1.61756,0.966977505,0.10705539,0.13659633
1764511192.863904,-3.09778,2.19744,1.61756,0.966977505,0.10705539,0.13659633
1764511192.864896,-3.09778,2.19744,1.61756,0.966977505,0.10705539,0.13659633
1764511192.864896,-3.09778,2.19744,1.61756,0.966977505,0.10705539,0.13659633
1764511192.864896,-3.09778,2.19744,1.61756,0.966977505,0.10705539,0.13659633
1764511192.864896,-3.09778,2.19744,1.61756,0.966977505,0.10705539,0.13659633
1764511192.909942,-3.09778,2.19744,1.61756,0.966977505,0.10705539,0.13659633
1764511192.909942,-3.09778,2.19744,1.61756,0.966977505,0.10705539,0.13659633
1764511192.909942,-3.09778,2.19744,1.61756,0.966977505,0.10705539,0.13659633
1764511192.909942,-3.09778,2.19744,1.61756,0.966977505,0.10705539,0.13659633
1764511192.909942,-2.8231,1.17502,1.05294,0.9655737,0.10693332,0.13623012
1764511192.909942,-2.8231,1.17502,1.05294,0.9655737,0.10693332,0.13623012
1764511192.909942,-2.8231,1.17502,1.05294,0.9655737,0.10693332,0.13623012
1764511192.909942,-2.8231,1.17502,1.05294,0.9655737,0.10693332,0.13623012
1764511192.909942,-2.8231,1.17502,1.05294,0.9655737,0.10693332,0.13623012
1764511192.909942,-2.8231,1.17502,1.05294,0.9655737,0.10693332,0.13623012
1764511192.909942,-2.8231,1.17502,1.05294,0.9655737,0.10693332,0.13623012
1764511192.909942,-2.8231,1.17502,1.05294,0.9655737,0.10693332,0.13623012
1764511192.909942,-2.8231,1.17502,1.05294,0.9655737,0.10693332,0.13623012
1764511192.909942,-2.8231,1.17502,1.05294,0.9655737,0.10693332,0.13623012
1764511192.909942,-2.63998,1.23606,0.27468,0.966245085,0.107848845,0.13598598
1764511192.909942,-2.63998,1.23606,0.27468,0.966245085,0.107848845,0.13598598
1764511192.909942,-2.63998,1.23606,0.27468,0.966245085,0.107848845,0.13598598
1764511192.909942,-2.63998,1.23606,0.27468,0.966245085,0.107848845,0.13598598
1764511192.909942,-2.63998,1.23606,0.27468,0.966245085,0.107848845,0.13598598
1764511192.909942,-2.63998,1.23606,0.27468,0.966245085,0.107848845,0.13598598
1764511192.909942,-2.63998,1.23606,0.27468,0.966245085,0.107848845,0.13598598
1764511192.9109426,-2.63998,1.23606,0.27468,0.966245085,0.107848845,0.13598598
1764511192.9124937,-2.63998,1.23606,0.27468,0.966245085,0.107848845,0.13598598
1764511192.9124937,-2.63998,1.23606,0.27468,0.966245085,0.107848845,0.13598598
1764511192.9124937,-2.5179,1.9838,0.27468,0.96838131,0.108581265,0.136535295
1764511192.9124937,-2.5179,1.9838,0.27468,0.96838131,0.108581265,0.136535295
1764511192.9569287,-2.5179,1.9838,0.27468,0.96838131,0.108581265,0.136535295
1764511192.9569287,-2.5179,1.9838,0.27468,0.96838131,0.108581265,0.136535295
1764511192.9569287,-2.5179,1.9838,0.27468,0.96838131,0.108581265,0.136535295
1764511192.9569287,-2.5179,1.9838,0.27468,0.96838131,0.108581265,0.136535295
1764511192.9569287,-2.5179,1.9838,0.27468,0.96838131,0.108581265,0.136535295
1764511192.9574797,-2.5179,1.9838,0.27468,0.96838131,0.108581265,0.136535295
1764511192.9574797,-2.5179,1.9838,0.27468,0.96838131,0.108581265,0.136535295
1764511192.9574797,-2.5179,1.9838,0.27468,0.96838131,0.108581265,0.136535295
1764511192.9574797,-2.85362,2.41108,0.39676,0.96813717,0.109863,0.13696254
1764511192.9574797,-2.85362,2.41108,0.39676,0.96813717,0.109863,0.13696254
1764511192.9574797,-2.85362,2.41108,0.39676,0.96813717,0.109863,0.13696254
1764511192.9574797,-2.85362,2.41108,0.39676,0.96813717,0.109863,0.13696254
1764511192.9574797,-2.85362,2.41108,0.39676,0.96813717,0.109863,0.13696254
1764511192.9574797,-2.85362,2.41108,0.39676,0.96813717,0.109863,0.13696254
1764511192.9574797,-2.85362,2.41108,0.39676,0.96813717,0.109863,0.13696254
1764511192.9574797,-2.85362,2.41108,0.39676,0.96813717,0.109863,0.13696254
1764511192.9574797,-2.85362,2.41108,0.39676,0.96813717,0.109863,0.13696254
1764511192.9574797,-2.85362,2.41108,0.39676,0.96813717,0.109863,0.13696254
1764511192.9574797,-3.41824,1.84646,0.3357199999999999,0.965390595,0.111144735,0.137267715
1764511192.9574797,-3.41824,1.84646,0.3357199999999999,0.965390595,0.111144735,0.137267715
1764511192.9574797,-3.41824,1.84646,0.3357199999999999,0.965390595,0.111144735,0.137267715
1764511192.9574797,-3.41824,1.84646,0.3357199999999999,0.965390595,0.111144735,0.137267715
1764511193.0033395,-3.41824,1.84646,0.3357199999999999,0.965390595,0.111144735,0.137267715
1764511193.0043807,-3.41824,1.84646,0.3357199999999999,0.965390595,0.111144735,0.137267715
1764511193.0043807,-3.41824,1.84646,0.3357199999999999,0.965390595,0.111144735,0.137267715
1764511193.0043807,-3.41824,1.84646,0.3357199999999999,0.965390595,0.111144735,0.137267715
1764511193.0043807,-3.41824,1.84646,0.3357199999999999,0.965390595,0.111144735,0.137267715
1764511193.0053802,-3.41824,1.84646,0.3357199999999999,0.965390595,0.111144735,0.137267715
1764511193.0053802,-3.78448,0.65618,0.24416,0.96301023,0.112121295,0.137633925
1764511193.0053802,-3.78448,0.65618,0.24416,0.96301023,0.112121295,0.137633925
1764511193.0053802,-3.78448,0.65618,0.24416,0.96301023,0.112121295,0.137633925
1764511193.0053802,-3.78448,0.65618,0.24416,0.96301023,0.112121295,0.137633925
1764511193.0053802,-3.78448,0.65618,0.24416,0.96301023,0.112121295,0.137633925
1764511193.0053802,-3.78448,0.65618,0.24416,0.96301023,0.112121295,0.137633925
1764511193.006915,-3.78448,0.65618,0.24416,0.96301023,0.112121295,0.137633925
1764511193.006915,-3.78448,0.65618,0.24416,0.96301023,0.112121295,0.137633925
1764511193.006915,-3.78448,0.65618,0.24416,0.96301023,0.112121295,0.137633925
1764511193.006915,-3.78448,0.65618,0.24416,0.96301023,0.112121295,0.137633925
1764511193.006915,-3.92182,0.10682,0.94612,0.962582985,0.11144991,0.138244275
1764511193.006915,-3.92182,0.10682,0.94612,0.962582985,0.11144991,0.138244275
1764511193.006915,-3.92182,0.10682,0.94612,0.962582985,0.11144991,0.138244275
1764511193.006915,-3.92182,0.10682,0.94612,0.962582985,0.11144991,0.138244275
1764511193.0079558,-3.92182,0.10682,0.94612,0.962582985,0.11144991,0.138244275
1764511193.0079558,-3.92182,0.10682,0.94612,0.962582985,0.11144991,0.138244275
1764511193.0079558,-3.92182,0.10682,0.94612,0.962582985,0.11144991,0.138244275
1764511193.0079558,-3.92182,0.10682,0.94612,0.962582985,0.11144991,0.138244275
1764511193.050108,-3.92182,0.10682,0.94612,0.962582985,0.11144991,0.138244275
1764511193.050108,-3.92182,0.10682,0.94612,0.962582985,0.11144991,0.138244275
1764511193.050108,-4.01338,0.41202,0.93086,0.96325437,0.111388875,0.138488415
1764511193.050108,-4.01338,0.41202,0.93086,0.96325437,0.111388875,0.138488415
1764511193.050108,-4.01338,0.41202,0.93086,0.96325437,0.111388875,0.138488415
1764511193.0505092,-4.01338,0.41202,0.93086,0.96325437,0.111388875,0.138488415
1764511193.0505092,-4.01338,0.41202,0.93086,0.96325437,0.111388875,0.138488415
1764511193.0505092,-4.01338,0.41202,0.93086,0.96325437,0.111388875,0.138488415
1764511193.0505092,-4.01338,0.41202,0.93086,0.96325437,0.111388875,0.138488415
1764511193.0505092,-4.01338,0.41202,0.93086,0.96325437,0.111388875,0.138488415
1764511193.0505092,-4.01338,0.41202,0.93086,0.96325437,0.111388875,0.138488415
1764511193.0505092,-4.01338,0.41202,0.93086,0.96325437,0.111388875,0.138488415
1764511193.0505092,-4.28806,0.0762999999999999,0.9156,0.964536105,0.111266805,0.137878065
1764511193.0505092,-4.28806,0.0762999999999999,0.9156,0.964536105,0.111266805,0.137878065
1764511193.0505092,-4.28806,0.0762999999999999,0.9156,0.964536105,0.111266805,0.137878065
1764511193.0505092,-4.28806,0.0762999999999999,0.9156,0.964536105,0.111266805,0.137878065
1764511193.0505092,-4.28806,0.0762999999999999,0.9156,0.964536105,0.111266805,0.137878065
1764511193.0505092,-4.28806,0.0762999999999999,0.9156,0.964536105,0.111266805,0.137878065
1764511193.0505092,-4.28806,0.0762999999999999,0.9156,0.964536105,0.111266805,0.137878065
1764511193.0505092,-4.28806,0.0762999999999999,0.9156,0.964536105,0.111266805,0.137878065
1764511193.0505092,-4.28806,0.0762999999999999,0.9156,0.964536105,0.111266805,0.137878065
1764511193.0511477,-4.28806,0.0762999999999999,0.9156,0.964536105,0.111266805,0.137878065
1764511193.0511477,-4.1202,0.06104,0.73248,0.965268525,0.11218233,0.13732875
1764511193.0511477,-4.1202,0.06104,0.73248,0.965268525,0.11218233,0.13732875
1764511193.0939858,-4.1202,0.06104,0.73248,0.965268525,0.11218233,0.13732875
1764511193.0939858,-4.1202,0.06104,0.73248,0.965268525,0.11218233,0.13732875
1764511193.0939858,-4.1202,0.06104,0.73248,0.965268525,0.11218233,0.13732875
1764511193.0939858,-4.1202,0.06104,0.73248,0.965268525,0.11218233,0.13732875
1764511193.0939858,-4.1202,0.06104,0.73248,0.965268525,0.11218233,0.13732875
1764511193.0939858,-4.1202,0.06104,0.73248,0.965268525,0.11218233,0.13732875
1764511193.0939858,-4.1202,0.06104,0.73248,0.965268525,0.11218233,0.13732875
1764511193.0939858,-4.1202,0.06104,0.73248,0.965268525,0.11218233,0.13732875
1764511193.0939858,-4.41014,0.9919,0.97664,0.96667233,0.11242647,0.13708461
1764511193.0939858,-4.41014,0.9919,0.97664,0.96667233,0.11242647,0.13708461
1764511193.0939858,-4.41014,0.9919,0.97664,0.96667233,0.11242647,0.13708461
1764511193.0939858,-4.41014,0.9919,0.97664,0.96667233,0.11242647,0.13708461
1764511193.0939858,-4.41014,0.9919,0.97664,0.96667233,0.11242647,0.13708461
1764511193.0939858,-4.41014,0.9919,0.97664,0.96667233,0.11242647,0.13708461
1764511193.0939858,-4.41014,0.9919,0.97664,0.96667233,0.11242647,0.13708461
1764511193.0939858,-4.41014,0.9919,0.97664,0.96667233,0.11242647,0.13708461
1764511193.0939858,-4.41014,0.9919,0.97664,0.96667233,0.11242647,0.13708461
1764511193.0939858,-4.41014,0.9919,0.97664,0.96667233,0.11242647,0.13708461
1764511193.0939858,-4.02864,1.6786,0.79352,0.967343715,0.111388875,0.136779435
1764511193.0939858,-4.02864,1.6786,0.79352,0.967343715,0.111388875,0.136779435
1764511193.1439066,-4.02864,1.6786,0.79352,0.967343715,0.111388875,0.136779435
1764511193.1439066,-4.02864,1.6786,0.79352,0.967343715,0.111388875,0.136779435
1764511193.1439066,-4.02864,1.6786,0.79352,0.967343715,0.111388875,0.136779435
1764511193.1439066,-4.02864,1.6786,0.79352,0.967343715,0.111388875,0.136779435
1764511193.1439066,-4.02864,1.6786,0.79352,0.967343715,0.111388875,0.136779435
1764511193.1439066,-4.02864,1.6786,0.79352,0.967343715,0.111388875,0.136779435
1764511193.1439066,-4.02864,1.6786,0.79352,0.967343715,0.111388875,0.136779435
1764511193.1439066,-4.02864,1.6786,0.79352,0.967343715,0.111388875,0.136779435
1764511193.1439066,-3.7387,1.64808,1.00716,0.96630612,0.109863,0.13623012
1764511193.1455574,-3.7387,1.64808,1.00716,0.96630612,0.109863,0.13623012
1764511193.1455574,-3.7387,1.64808,1.00716,0.96630612,0.109863,0.13623012
1764511193.1455574,-3.7387,1.64808,1.00716,0.96630612,0.109863,0.13623012
1764511193.1455574,-3.7387,1.64808,1.00716,0.96630612,0.109863,0.13623012
1764511193.1455574,-3.7387,1.64808,1.00716,0.96630612,0.109863,0.13623012
1764511193.1455574,-3.7387,1.64808,1.00716,0.96630612,0.109863,0.13623012
1764511193.1455574,-3.7387,1.64808,1.00716,0.96630612,0.109863,0.13623012
1764511193.1455574,-3.7387,1.64808,1.00716,0.96630612,0.109863,0.13623012
1764511193.1455574,-3.7387,1.64808,1.00716,0.96630612,0.109863,0.13623012
1764511193.1455574,-3.1283,1.51074,1.41918,0.96569577,0.108947475,0.13561977
1764511193.1455574,-3.1283,1.51074,1.41918,0.96569577,0.108947475,0.13561977
1764511193.1455574,-3.1283,1.51074,1.41918,0.96569577,0.108947475,0.13561977
1764511193.1455574,-3.1283,1.51074,1.41918,0.96569577,0.108947475,0.13561977
1764511193.1455574,-3.1283,1.51074,1.41918,0.96569577,0.108947475,0.13561977
1764511193.1455574,-3.1283,1.51074,1.41918,0.96569577,0.108947475,0.13561977
1764511193.1455574,-3.1283,1.51074,1.41918,0.96569577,0.108947475,0.13561977
1764511193.1455574,-3.1283,1.51074,1.41918,0.96569577,0.108947475,0.13561977
1764511193.1901047,-3.1283,1.51074,1.41918,0.96569577,0.108947475,0.13561977
1764511193.1901047,-3.1283,1.51074,1.41918,0.96569577,0.108947475,0.13561977
1764511193.1911392,-2.7468,0.56462,1.526,0.965268525,0.1086423,0.13623012
1764511193.1911392,-2.7468,0.56462,1.526,0.965268525,0.1086423,0.13623012
1764511193.1911392,-2.7468,0.56462,1.526,0.965268525,0.1086423,0.13623012
1764511193.1911392,-2.7468,0.56462,1.526,0.965268525,0.1086423,0.13623012
1764511193.1911392,-2.7468,0.56462,1.526,0.965268525,0.1086423,0.13623012
1764511193.1911392,-2.7468,0.56462,1.526,0.965268525,0.1086423,0.13623012
1764511193.1911392,-2.7468,0.56462,1.526,0.965268525,0.1086423,0.13623012
1764511193.1911392,-2.7468,0.56462,1.526,0.965268525,0.1086423,0.13623012
1764511193.1911392,-2.7468,0.56462,1.526,0.965268525,0.1086423,0.13623012
1764511193.1911392,-2.7468,0.56462,1.526,0.965268525,0.1086423,0.13623012
1764511193.1911392,-2.73154,0.9156,1.73964,0.96496335,0.109801965,0.13659633
1764511193.1911392,-2.73154,0.9156,1.73964,0.96496335,0.109801965,0.13659633
1764511193.1911392,-2.73154,0.9156,1.73964,0.96496335,0.109801965,0.13659633
1764511193.1911392,-2.73154,0.9156,1.73964,0.96496335,0.109801965,0.13659633
1764511193.1911392,-2.73154,0.9156,1.73964,0.96496335,0.109801965,0.13659633
1764511193.1911392,-2.73154,0.9156,1.73964,0.96496335,0.109801965,0.13659633
1764511193.1911392,-2.73154,0.9156,1.73964,0.96496335,0.109801965,0.13659633
1764511193.1911392,-2.73154,0.9156,1.73964,0.96496335,0.109801965,0.13659633
1764511193.1911392,-2.73154,0.9156,1.73964,0.96496335,0.109801965,0.13659633
1764511193.1911392,-2.73154,0.9156,1.73964,0.96496335,0.109801965,0.13659633
1764511193.2377954,-3.00622,1.35814,1.69386,0.966123015,0.11071749,0.13647426
1764511193.2377954,-3.00622,1.35814,1.69386,0.966123015,0.11071749,0.13647426
1764511193.2377954,-3.00622,1.35814,1.69386,0.966123015,0.11071749,0.13647426
1764511193.2377954,-3.00622,1.35814,1.69386,0.966123015,0.11071749,0.13647426
1764511193.2377954,-3.00622,1.35814,1.69386,0.966123015,0.11071749,0.13647426
1764511193.2377954,-3.00622,1.35814,1.69386,0.966123015,0.11071749,0.13647426
1764511193.238309,-3.00622,1.35814,1.69386,0.966123015,0.11071749,0.13647426
1764511193.238309,-3.00622,1.35814,1.69386,0.966123015,0.11071749,0.13647426
1764511193.238309,-3.00622,1.35814,1.69386,0.966123015,0.11071749,0.13647426
1764511193.238309,-3.00622,1.35814,1.69386,0.966123015,0.11071749,0.13647426
1764511193.238309,-3.83026,1.11398,1.19028,0.966245085,0.110900595,0.136047015
1764511193.238309,-3.83026,1.11398,1.19028,0.966245085,0.110900595,0.136047015
1764511193.238309,-3.83026,1.11398,1.19028,0.966245085,0.110900595,0.136047015
1764511193.238309,-3.83026,1.11398,1.19028,0.966245085,0.110900595,0.136047015
1764511193.238309,-3.83026,1.11398,1.19028,0.966245085,0.110900595,0.136047015
1764511193.238309,-3.83026,1.11398,1.19028,0.966245085,0.110900595,0.136047015
1764511193.238309,-3.83026,1.11398,1.19028,0.966245085,0.110900595,0.136047015
1764511193.238309,-3.83026,1.11398,1.19028,0.966245085,0.110900595,0.136047015
1764511193.238309,-3.83026,1.11398,1.19028,0.966245085,0.110900595,0.136047015
1764511193.238309,-3.83026,1.11398,1.19028,0.966245085,0.110900595,0.136047015
1764511193.238309,-4.2728,1.2971,0.62566,0.96593991,0.11059542,0.136169085
1764511193.238309,-4.2728,1.2971,0.62566,0.96593991,0.11059542,0.136169085
1764511193.238309,-4.2728,1.2971,0.62566,0.96593991,0.11059542,0.136169085
1764511193.238309,-4.2728,1.2971,0.62566,0.96593991,0.11059542,0.136169085
1764511193.283037,-4.2728,1.2971,0.62566,0.96593991,0.11059542,0.136169085
1764511193.283037,-4.2728,1.2971,0.62566,0.96593991,0.11059542,0.136169085
1764511193.283037,-4.2728,1.2971,0.62566,0.96593991,0.11059542,0.136169085
1764511193.283037,-4.2728,1.2971,0.62566,0.96593991,0.11059542,0.136169085
1764511193.283037,-4.2728,1.2971,0.62566,0.96593991,0.11059542,0.136169085
1764511193.283037,-4.2728,1.2971,0.62566,0.96593991,0.11059542,0.136169085
1764511193.283037,-4.2728,1.41918,0.09156,0.966123015,0.10998507,0.13623012
1764511193.283037,-4.2728,1.41918,0.09156,0.966123015,0.10998507,0.13623012
1764511193.283037,-4.2728,1.41918,0.09156,0.966123015,0.10998507,0.13623012
1764511193.283037,-4.2728,1.41918,0.09156,0.966123015,0.10998507,0.13623012
1764511193.283037,-4.2728,1.41918,0.09156,0.966123015,0.10998507,0.13623012
1764511193.283037,-4.2728,1.41918,0.09156,0.966123015,0.10998507,0.13623012
1764511193.283037,-4.2728,1.41918,0.09156,0.966123015,0.10998507,0.13623012
1764511193.283037,-4.2728,1.41918,0.09156,0.966123015,0.10998507,0.13623012
1764511193.283037,-4.2728,1.41918,0.09156,0.966123015,0.10998507,0.13623012
1764511193.283037,-4.2728,1.41918,0.09156,0.966123015,0.10998507,0.13623012
1764511193.283037,-4.36436,0.93086,0.82404,0.96545163,0.10961886,0.136047015
1764511193.283037,-4.36436,0.93086,0.82404,0.96545163,0.10961886,0.136047015
1764511193.2840798,-4.36436,0.93086,0.82404,0.96545163,0.10961886,0.136047015
1764511193.2840798,-4.36436,0.93086,0.82404,0.96545163,0.10961886,0.136047015
1764511193.2840798,-4.36436,0.93086,0.82404,0.96545163,0.10961886,0.136047015
1764511193.2840798,-4.36436,0.93086,0.82404,0.96545163,0.10961886,0.136047015
1764511193.2840798,-4.36436,0.93086,0.82404,0.96545163,0.10961886,0.136047015
1764511193.2840798,-4.36436,0.93086,0.82404,0.96545163,0.10961886,0.136047015
1764511193.3295536,-4.36436,0.93086,0.82404,0.96545163,0.10961886,0.136047015
1764511193.3305666,-4.36436,0.93086,0.82404,0.96545163,0.10961886,0.136047015
1764511193.3305666,-3.9676,0.6867,0.3204599999999999,0.9655737,0.109069545,0.13586391
1764511193.3305666,-3.9676,0.6867,0.3204599999999999,0.9655737,0.109069545,0.13586391
1764511193.3305666,-3.9676,0.6867,0.3204599999999999,0.9655737,0.109069545,0.13586391
1764511193.3305666,-3.9676,0.6867,0.3204599999999999,0.9655737,0.109069545,0.13586391
1764511193.3305666,-3.9676,0.6867,0.3204599999999999,0.9655737,0.109069545,0.13586391
1764511193.3305666,-3.9676,0.6867,0.3204599999999999,0.9655737,0.109069545,0.13586391
1764511193.3305666,-3.9676,0.6867,0.3204599999999999,0.9655737,0.109069545,0.13586391
1764511193.3305666,-3.9676,0.6867,0.3204599999999999,0.9655737,0.109069545,0.13586391
1764511193.3305666,-3.9676,0.6867,0.3204599999999999,0.9655737,0.109069545,0.13586391
1764511193.3305666,-3.9676,0.6867,0.3204599999999999,0.9655737,0.109069545,0.13586391
1764511193.3305666,-3.92182,0.82404,1.03768,0.966000945,0.108215055,0.13659633
1764511193.3305666,-3.92182,0.82404,1.03768,0.966000945,0.108215055,0.13659633
1764511193.3305666,-3.92182,0.82404,1.03768,0.966000945,0.108215055,0.13659633
1764511193.3305666,-3.92182,0.82404,1.03768,0.966000945,0.108215055,0.13659633
1764511193.3305666,-3.92182,0.82404,1.03768,0.966000945,0.108215055,0.13659633
1764511193.3305666,-3.92182,0.82404,1.03768,0.966000945,0.108215055,0.13659633
1764511193.3325672,-3.92182,0.82404,1.03768,0.966000945,0.108215055,0.13659633
1764511193.3325672,-3.92182,0.82404,1.03768,0.966000945,0.108215055,0.13659633
1764511193.3325672,-3.92182,0.82404,1.03768,0.966000945,0.108215055,0.13659633
1764511193.3325672,-3.92182,0.82404,1.03768,0.966000945,0.108215055,0.13659633
1764511193.376935,-3.46402,0.9919,0.8087799999999999,0.96545163,0.10803195,0.137389785
1764511193.376935,-3.46402,0.9919,0.8087799999999999,0.96545163,0.10803195,0.137389785
1764511193.376935,-3.46402,0.9919,0.8087799999999999,0.96545163,0.10803195,0.137389785
1764511193.376935,-3.46402,0.9919,0.8087799999999999,0.96545163,0.10803195,0.137389785
1764511193.3774478,-3.46402,0.9919,0.8087799999999999,0.96545163,0.10803195,0.137389785
1764511193.3774478,-3.46402,0.9919,0.8087799999999999,0.96545163,0.10803195,0.137389785
1764511193.3774478,-3.46402,0.9919,0.8087799999999999,0.96545163,0.10803195,0.137389785
1764511193.3774478,-3.46402,0.9919,0.8087799999999999,0.96545163,0.10803195,0.137389785
1764511193.3774478,-3.46402,0.9919,0.8087799999999999,0.96545163,0.10803195,0.137389785
1764511193.3774478,-3.46402,0.9919,0.8087799999999999,0.96545163,0.10803195,0.137389785
1764511193.3774478,-4.01338,1.12924,0.57988,0.96545163,0.10888644,0.137755995
1764511193.3774478,-4.01338,1.12924,0.57988,0.96545163,0.10888644,0.137755995
1764511193.3774478,-4.01338,1.12924,0.57988,0.96545163,0.10888644,0.137755995
1764511193.3774478,-4.01338,1.12924,0.57988,0.96545163,0.10888644,0.137755995
1764511193.3774478,-4.01338,1.12924,0.57988,0.96545163,0.10888644,0.137755995
1764511193.3774478,-4.01338,1.12924,0.57988,0.96545163,0.10888644,0.137755995
1764511193.3774478,-4.01338,1.12924,0.57988,0.96545163,0.10888644,0.137755995
1764511193.3774478,-4.01338,1.12924,0.57988,0.96545163,0.10888644,0.137755995
1764511193.3774478,-4.01338,1.12924,0.57988,0.96545163,0.10888644,0.137755995
1764511193.3774478,-4.01338,1.12924,0.57988,0.96545163,0.10888644,0.137755995
1764511193.3774478,-3.29616,0.8087799999999999,-0.13734,0.96630612,0.108703335,0.13757289
1764511193.378479,-3.29616,0.8087799999999999,-0.13734,0.96630612,0.108703335,0.13757289
1764511193.378479,-3.29616,0.8087799999999999,-0.13734,0.96630612,0.108703335,0.13757289
1764511193.378479,-3.29616,0.8087799999999999,-0.13734,0.96630612,0.108703335,0.13757289
1764511193.4249258,-3.29616,0.8087799999999999,-0.13734,0.96630612,0.108703335,0.13757289
1764511193.4249258,-3.29616,0.8087799999999999,-0.13734,0.96630612,0.108703335,0.13757289
1764511193.4249258,-3.29616,0.8087799999999999,-0.13734,0.96630612,0.108703335,0.13757289
1764511193.4249258,-3.29616,0.8087799999999999,-0.13734,0.96630612,0.108703335,0.13757289
1764511193.4249258,-3.29616,0.8087799999999999,-0.13734,0.96630612,0.108703335,0.13757289
1764511193.4249258,-3.29616,0.8087799999999999,-0.13734,0.96630612,0.108703335,0.13757289
1764511193.4249258,-3.55558,0.6409199999999999,-1.17502,0.96606198,0.110290245,0.137023575
1764511193.4249258,-3.55558,0.6409199999999999,-1.17502,0.96606198,0.110290245,0.137023575
1764511193.4249258,-3.55558,0.6409199999999999,-1.17502,0.96606198,0.110290245,0.137023575
1764511193.4249258,-3.55558,0.6409199999999999,-1.17502,0.96606198,0.110290245,0.137023575
1764511193.4249258,-3.55558,0.6409199999999999,-1.17502,0.96606198,0.110290245,0.137023575
1764511193.4249258,-3.55558,0.6409199999999999,-1.17502,0.96606198,0.110290245,0.137023575
1764511193.4249258,-3.55558,0.6409199999999999,-1.17502,0.96606198,0.110290245,0.137023575
1764511193.4249258,-3.55558,0.6409199999999999,-1.17502,0.96606198,0.110290245,0.137023575
1764511193.4249258,-3.55558,0.6409199999999999,-1.17502,0.96606198,0.110290245,0.137023575
1764511193.4249258,-3.55558,0.6409199999999999,-1.17502,0.96606198,0.110290245,0.137023575
1764511193.4249258,-3.98286,0.763,-0.8392999999999999,0.96789303,0.111877155,0.137145645
1764511193.4249258,-3.98286,0.763,-0.8392999999999999,0.96789303,0.111877155,0.137145645
1764511193.4249258,-3.98286,0.763,-0.8392999999999999,0.96789303,0.111877155,0.137145645
1764511193.4259236,-3.98286,0.763,-0.8392999999999999,0.96789303,0.111877155,0.137145645
1764511193.4259236,-3.98286,0.763,-0.8392999999999999,0.96789303,0.111877155,0.137145645
1764511193.4259236,-3.98286,0.763,-0.8392999999999999,0.96789303,0.111877155,0.137145645
1764511193.4259236,-3.98286,0.763,-0.8392999999999999,0.96789303,0.111877155,0.137145645
1764511193.4259236,-3.98286,0.763,-0.8392999999999999,0.96789303,0.111877155,0.137145645
1764511193.470082,-3.98286,0.763,-0.8392999999999999,0.96789303,0.111877155,0.137145645
1764511193.470082,-3.98286,0.763,-0.8392999999999999,0.96789303,0.111877155,0.137145645
1764511193.470082,-3.98286,1.25132,-0.41202,0.966977505,0.112609575,0.136291155
1764511193.470082,-3.98286,1.25132,-0.41202,0.966977505,0.112609575,0.136291155
1764511193.470082,-3.98286,1.25132,-0.41202,0.966977505,0.112609575,0.136291155
1764511193.470082,-3.98286,1.25132,-0.41202,0.966977505,0.112609575,0.136291155
1764511193.470082,-3.98286,1.25132,-0.41202,0.966977505,0.112609575,0.136291155
1764511193.4710598,-3.98286,1.25132,-0.41202,0.966977505,0.112609575,0.136291155
1764511193.4710598,-3.98286,1.25132,-0.41202,0.966977505,0.112609575,0.136291155
1764511193.4710598,-3.98286,1.25132,-0.41202,0.966977505,0.112609575,0.136291155
1764511193.4710598,-3.98286,1.25132,-0.41202,0.966977505,0.112609575,0.136291155
1764511193.4710598,-3.98286,1.25132,-0.41202,0.966977505,0.112609575,0.136291155
1764511193.4710598,-4.18124,1.12924,0.42728,0.96508542,0.113219925,0.13647426
1764511193.4710598,-4.18124,1.12924,0.42728,0.96508542,0.113219925,0.13647426
1764511193.4710598,-4.18124,1.12924,0.42728,0.96508542,0.113219925,0.13647426
1764511193.4710598,-4.18124,1.12924,0.42728,0.96508542,0.113219925,0.13647426
1764511193.4710598,-4.18124,1.12924,0.42728,0.96508542,0.113219925,0.13647426
1764511193.4710598,-4.18124,1.12924,0.42728,0.96508542,0.113219925,0.13647426
1764511193.4710598,-4.18124,1.12924,0.42728,0.96508542,0.113219925,0.13647426
1764511193.4710598,-4.18124,1.12924,0.42728,0.96508542,0.113219925,0.13647426
1764511193.5154767,-4.18124,1.12924,0.42728,0.96508542,0.113219925,0.13647426
1764511193.5154767,-4.18124,1.12924,0.42728,0.96508542,0.113219925,0.13647426
1764511193.5154767,-4.059159999999999,1.3734,0.9919,0.96398679,0.11181612,0.13610805
1764511193.5154767,-4.059159999999999,1.3734,0.9919,0.96398679,0.11181612,0.13610805
1764511193.5154767,-4.059159999999999,1.3734,0.9919,0.96398679,0.11181612,0.13610805
1764511193.5154767,-4.059159999999999,1.3734,0.9919,0.96398679,0.11181612,0.13610805
1764511193.5154767,-4.059159999999999,1.3734,0.9919,0.96398679,0.11181612,0.13610805
1764511193.5154767,-4.059159999999999,1.3734,0.9919,0.96398679,0.11181612,0.13610805
1764511193.5154767,-4.059159999999999,1.3734,0.9919,0.96398679,0.11181612,0.13610805
1764511193.5154767,-4.059159999999999,1.3734,0.9919,0.96398679,0.11181612,0.13610805
1764511193.5154767,-4.059159999999999,1.3734,0.9919,0.96398679,0.11181612,0.13610805
1764511193.5170455,-4.059159999999999,1.3734,0.9919,0.96398679,0.11181612,0.13610805
1764511193.5170455,-3.31142,0.88508,1.49548,0.964780245,0.110290245,0.1367184
1764511193.5170455,-3.31142,0.88508,1.49548,0.964780245,0.110290245,0.1367184
1764511193.5170455,-3.31142,0.88508,1.49548,0.964780245,0.110290245,0.1367184
1764511193.517608,-3.31142,0.88508,1.49548,0.964780245,0.110290245,0.1367184
1764511193.517608,-3.31142,0.88508,1.49548,0.964780245,0.110290245,0.1367184
1764511193.518647,-3.31142,0.88508,1.49548,0.964780245,0.110290245,0.1367184
1764511193.518647,-3.31142,0.88508,1.49548,0.964780245,0.110290245,0.1367184
1764511193.518647,-3.31142,0.88508,1.49548,0.964780245,0.110290245,0.1367184
1764511193.518647,-3.31142,0.88508,1.49548,0.964780245,0.110290245,0.1367184
1764511193.518647,-3.31142,0.88508,1.49548,0.964780245,0.110290245,0.1367184
1764511193.518647,-2.80784,0.77826,1.6633399999999998,0.9655737,0.109069545,0.13769496
1764511193.518647,-2.80784,0.77826,1.6633399999999998,0.9655737,0.109069545,0.13769496
1764511193.518647,-2.80784,0.77826,1.6633399999999998,0.9655737,0.109069545,0.13769496
1764511193.518647,-2.80784,0.77826,1.6633399999999998,0.9655737,0.109069545,0.13769496
1764511193.5634775,-2.80784,0.77826,1.6633399999999998,0.9655737,0.109069545,0.13769496
1764511193.5634775,-2.80784,0.77826,1.6633399999999998,0.9655737,0.109069545,0.13769496
1764511193.5634775,-2.80784,0.77826,1.6633399999999998,0.9655737,0.109069545,0.13769496
1764511193.5634775,-2.80784,0.77826,1.6633399999999998,0.9655737,0.109069545,0.13769496
1764511193.5634775,-2.80784,0.77826,1.6633399999999998,0.9655737,0.109069545,0.13769496
1764511193.5634775,-2.80784,0.77826,1.6633399999999998,0.9655737,0.109069545,0.13769496
1764511193.5634775,-2.4416,0.9156,1.6786,0.96606198,0.109313685,0.138000135
1764511193.5634775,-2.4416,0.9156,1.6786,0.96606198,0.109313685,0.138000135
1764511193.5634775,-2.4416,0.9156,1.6786,0.96606198,0.109313685,0.138000135
1764511193.5634775,-2.4416,0.9156,1.6786,0.96606198,0.109313685,0.138000135
1764511193.5634775,-2.4416,0.9156,1.6786,0.96606198,0.109313685,0.138000135
1764511193.5634775,-2.4416,0.9156,1.6786,0.96606198,0.109313685,0.138000135
1764511193.5634775,-2.4416,0.9156,1.6786,0.96606198,0.109313685,0.138000135
1764511193.5634775,-2.4416,0.9156,1.6786,0.96606198,0.109313685,0.138000135
1764511193.5634775,-2.4416,0.9156,1.6786,0.96606198,0.109313685,0.138000135
1764511193.5634775,-2.4416,0.9156,1.6786,0.96606198,0.109313685,0.138000135
1764511193.5634775,-2.99096,0.9156,1.32762,0.96630612,0.11010714,0.137511855
1764511193.5634775,-2.99096,0.9156,1.32762,0.96630612,0.11010714,0.137511855
1764511193.5634775,-2.99096,0.9156,1.32762,0.96630612,0.11010714,0.137511855
1764511193.5634775,-2.99096,0.9156,1.32762,0.96630612,0.11010714,0.137511855
1764511193.5634775,-2.99096,0.9156,1.32762,0.96630612,0.11010714,0.137511855
1764511193.5634775,-2.99096,0.9156,1.32762,0.96630612,0.11010714,0.137511855
1764511193.5634775,-2.99096,0.9156,1.32762,0.96630612,0.11010714,0.137511855
1764511193.5634775,-2.99096,0.9156,1.32762,0.96630612,0.11010714,0.137511855
1764511193.609763,-2.99096,0.9156,1.32762,0.96630612,0.11010714,0.137511855
1764511193.609763,-2.99096,0.9156,1.32762,0.96630612,0.11010714,0.137511855
1764511193.609763,-3.78448,1.05294,0.8698199999999999,0.965390595,0.110534385,0.137267715
1764511193.609763,-3.78448,1.05294,0.8698199999999999,0.965390595,0.110534385,0.137267715
1764511193.609763,-3.78448,1.05294,0.8698199999999999,0.965390595,0.110534385,0.137267715
1764511193.609763,-3.78448,1.05294,0.8698199999999999,0.965390595,0.110534385,0.137267715
1764511193.609763,-3.78448,1.05294,0.8698199999999999,0.965390595,0.110534385,0.137267715
1764511193.609763,-3.78448,1.05294,0.8698199999999999,0.965390595,0.110534385,0.137267715
1764511193.611808,-3.78448,1.05294,0.8698199999999999,0.965390595,0.110534385,0.137267715
1764511193.611808,-3.78448,1.05294,0.8698199999999999,0.965390595,0.110534385,0.137267715
1764511193.611808,-3.78448,1.05294,0.8698199999999999,0.965390595,0.110534385,0.137267715
1764511193.611808,-3.78448,1.05294,0.8698199999999999,0.965390595,0.110534385,0.137267715
1764511193.611808,-4.5017,0.56462,0.57988,0.96520749,0.111510945,0.13586391
1764511193.611808,-4.5017,0.56462,0.57988,0.96520749,0.111510945,0.13586391
1764511193.611808,-4.5017,0.56462,0.57988,0.96520749,0.111510945,0.13586391
1764511193.611808,-4.5017,0.56462,0.57988,0.96520749,0.111510945,0.13586391
1764511193.611808,-4.5017,0.56462,0.57988,0.96520749,0.111510945,0.13586391
1764511193.611808,-4.5017,0.56462,0.57988,0.96520749,0.111510945,0.13586391
1764511193.611808,-4.5017,0.56462,0.57988,0.96520749,0.111510945,0.13586391
1764511193.611808,-4.5017,0.56462,0.57988,0.96520749,0.111510945,0.13586391
1764511193.611808,-4.5017,0.56462,0.57988,0.96520749,0.111510945,0.13586391
1764511193.611808,-4.5017,0.56462,0.57988,0.96520749,0.111510945,0.13586391
1764511193.611808,-4.74586,1.05294,0.36624,0.965268525,0.11071749,0.135680805
1764511193.611808,-4.74586,1.05294,0.36624,0.965268525,0.11071749,0.135680805
1764511193.660122,-4.74586,1.05294,0.36624,0.965268525,0.11071749,0.135680805
1764511193.660122,-4.74586,1.05294,0.36624,0.965268525,0.11071749,0.135680805
1764511193.660122,-4.74586,1.05294,0.36624,0.965268525,0.11071749,0.135680805
1764511193.660122,-4.74586,1.05294,0.36624,0.965268525,0.11071749,0.135680805
1764511193.660122,-4.74586,1.05294,0.36624,0.965268525,0.11071749,0.135680805
1764511193.660122,-4.74586,1.05294,0.36624,0.965268525,0.11071749,0.135680805
1764511193.660122,-4.74586,1.05294,0.36624,0.965268525,0.11071749,0.135680805
1764511193.660122,-4.74586,1.05294,0.36624,0.965268525,0.11071749,0.135680805
1764511193.660122,-4.15072,1.6786,0.73248,0.96447507,0.107604705,0.13708461
1764511193.660122,-4.15072,1.6786,0.73248,0.96447507,0.107604705,0.13708461
1764511193.660122,-4.15072,1.6786,0.73248,0.96447507,0.107604705,0.13708461
1764511193.660122,-4.15072,1.6786,0.73248,0.96447507,0.107604705,0.13708461
1764511193.660122,-4.15072,1.6786,0.73248,0.96447507,0.107604705,0.13708461
1764511193.660122,-4.15072,1.6786,0.73248,0.96447507,0.107604705,0.13708461
1764511193.660122,-4.15072,1.6786,0.73248,0.96447507,0.107604705,0.13708461
1764511193.660122,-4.15072,1.6786,0.73248,0.96447507,0.107604705,0.13708461
1764511193.660122,-4.15072,1.6786,0.73248,0.96447507,0.107604705,0.13708461
1764511193.660122,-4.15072,1.6786,0.73248,0.96447507,0.107604705,0.13708461
1764511193.660122,-3.79974,0.3357199999999999,0.3204599999999999,0.963681615,0.107482635,0.137145645
1764511193.660122,-3.79974,0.3357199999999999,0.3204599999999999,0.963681615,0.107482635,0.137145645
1764511193.660122,-3.79974,0.3357199999999999,0.3204599999999999,0.963681615,0.107482635,0.137145645
1764511193.660122,-3.79974,0.3357199999999999,0.3204599999999999,0.963681615,0.107482635,0.137145645
1764511193.704558,-3.79974,0.3357199999999999,0.3204599999999999,0.963681615,0.107482635,0.137145645
1764511193.704558,-3.79974,0.3357199999999999,0.3204599999999999,0.963681615,0.107482635,0.137145645
1764511193.704558,-3.79974,0.3357199999999999,0.3204599999999999,0.963681615,0.107482635,0.137145645
1764511193.704558,-3.79974,0.3357199999999999,0.3204599999999999,0.963681615,0.107482635,0.137145645
1764511193.704558,-3.79974,0.3357199999999999,0.3204599999999999,0.963681615,0.107482635,0.137145645
1764511193.704558,-3.79974,0.3357199999999999,0.3204599999999999,0.963681615,0.107482635,0.137145645
1764511193.704558,-3.41824,0.36624,0.3509799999999999,0.964536105,0.1074216,0.137145645
1764511193.704558,-3.41824,0.36624,0.3509799999999999,0.964536105,0.1074216,0.137145645
1764511193.704558,-3.41824,0.36624,0.3509799999999999,0.964536105,0.1074216,0.137145645
1764511193.704558,-3.41824,0.36624,0.3509799999999999,0.964536105,0.1074216,0.137145645
1764511193.704558,-3.41824,0.36624,0.3509799999999999,0.964536105,0.1074216,0.137145645
1764511193.704558,-3.41824,0.36624,0.3509799999999999,0.964536105,0.1074216,0.137145645
1764511193.704558,-3.41824,0.36624,0.3509799999999999,0.964536105,0.1074216,0.137145645
1764511193.704558,-3.41824,0.36624,0.3509799999999999,0.964536105,0.1074216,0.137145645
1764511193.704558,-3.41824,0.36624,0.3509799999999999,0.964536105,0.1074216,0.137145645
1764511193.705598,-3.41824,0.36624,0.3509799999999999,0.964536105,0.1074216,0.137145645
1764511193.705598,-3.29616,1.28184,0.1525999999999999,0.967221645,0.10815402,0.137389785
1764511193.705598,-3.29616,1.28184,0.1525999999999999,0.967221645,0.10815402,0.137389785
1764511193.705598,-3.29616,1.28184,0.1525999999999999,0.967221645,0.10815402,0.137389785
1764511193.705598,-3.29616,1.28184,0.1525999999999999,0.967221645,0.10815402,0.137389785
1764511193.705598,-3.29616,1.28184,0.1525999999999999,0.967221645,0.10815402,0.137389785
1764511193.705598,-3.29616,1.28184,0.1525999999999999,0.967221645,0.10815402,0.137389785
1764511193.705598,-3.29616,1.28184,0.1525999999999999,0.967221645,0.10815402,0.137389785
1764511193.705598,-3.29616,1.28184,0.1525999999999999,0.967221645,0.10815402,0.137389785
1764511193.7493322,-3.29616,1.28184,0.1525999999999999,0.967221645,0.10815402,0.137389785
1764511193.7493322,-3.29616,1.28184,0.1525999999999999,0.967221645,0.10815402,0.137389785
1764511193.7493322,-3.67766,1.95328,-0.04578,0.968320275,0.109924035,0.136657365
1764511193.7498446,-3.67766,1.95328,-0.04578,0.968320275,0.109924035,0.136657365
1764511193.7498446,-3.67766,1.95328,-0.04578,0.968320275,0.109924035,0.136657365
1764511193.7498446,-3.67766,1.95328,-0.04578,0.968320275,0.109924035,0.136657365
1764511193.7498446,-3.67766,1.95328,-0.04578,0.968320275,0.109924035,0.136657365
1764511193.7498446,-3.67766,1.95328,-0.04578,0.968320275,0.109924035,0.136657365
1764511193.7498446,-3.67766,1.95328,-0.04578,0.968320275,0.109924035,0.136657365
1764511193.7498446,-3.67766,1.95328,-0.04578,0.968320275,0.109924035,0.136657365
1764511193.7498446,-3.67766,1.95328,-0.04578,0.968320275,0.109924035,0.136657365
1764511193.7498446,-3.67766,1.95328,-0.04578,0.968320275,0.109924035,0.136657365
1764511193.7498446,-3.84552,1.3734,0.09156,0.96606198,0.1110837,0.136657365
1764511193.7498446,-3.84552,1.3734,0.09156,0.96606198,0.1110837,0.136657365
1764511193.7498446,-3.84552,1.3734,0.09156,0.96606198,0.1110837,0.136657365
1764511193.7498446,-3.84552,1.3734,0.09156,0.96606198,0.1110837,0.136657365
1764511193.7498446,-3.84552,1.3734,0.09156,0.96606198,0.1110837,0.136657365
1764511193.7498446,-3.84552,1.3734,0.09156,0.96606198,0.1110837,0.136657365
1764511193.7498446,-3.84552,1.3734,0.09156,0.96606198,0.1110837,0.136657365
1764511193.7498446,-3.84552,1.3734,0.09156,0.96606198,0.1110837,0.136657365
1764511193.7498446,-3.84552,1.3734,0.09156,0.96606198,0.1110837,0.136657365
1764511193.7498446,-3.84552,1.3734,0.09156,0.96606198,0.1110837,0.136657365
1764511193.797065,-3.76922,0.8392999999999999,0.3357199999999999,0.964291965,0.11083956,0.13696254
1764511193.7981172,-3.76922,0.8392999999999999,0.3357199999999999,0.964291965,0.11083956,0.13696254
1764511193.7981172,-3.76922,0.8392999999999999,0.3357199999999999,0.964291965,0.11083956,0.13696254
1764511193.7981172,-3.76922,0.8392999999999999,0.3357199999999999,0.964291965,0.11083956,0.13696254
1764511193.7991066,-3.76922,0.8392999999999999,0.3357199999999999,0.964291965,0.11083956,0.13696254
1764511193.7991066,-3.76922,0.8392999999999999,0.3357199999999999,0.964291965,0.11083956,0.13696254
1764511193.7991066,-3.76922,0.8392999999999999,0.3357199999999999,0.964291965,0.11083956,0.13696254
1764511193.7991066,-3.76922,0.8392999999999999,0.3357199999999999,0.964291965,0.11083956,0.13696254
1764511193.7991066,-3.76922,0.8392999999999999,0.3357199999999999,0.964291965,0.11083956,0.13696254
1764511193.8001025,-3.76922,0.8392999999999999,0.3357199999999999,0.964291965,0.11083956,0.13696254
1764511193.8001025,-3.54032,-0.0762999999999999,0.82404,0.96374265,0.110046105,0.13720668
1764511193.8001025,-3.54032,-0.0762999999999999,0.82404,0.96374265,0.110046105,0.13720668
1764511193.8001025,-3.54032,-0.0762999999999999,0.82404,0.96374265,0.110046105,0.13720668
1764511193.8001025,-3.54032,-0.0762999999999999,0.82404,0.96374265,0.110046105,0.13720668
1764511193.8011026,-3.54032,-0.0762999999999999,0.82404,0.96374265,0.110046105,0.13720668
1764511193.8011026,-3.54032,-0.0762999999999999,0.82404,0.96374265,0.110046105,0.13720668
1764511193.8011026,-3.54032,-0.0762999999999999,0.82404,0.96374265,0.110046105,0.13720668
1764511193.8011026,-3.54032,-0.0762999999999999,0.82404,0.96374265,0.110046105,0.13720668
1764511193.8021023,-3.54032,-0.0762999999999999,0.82404,0.96374265,0.110046105,0.13720668
1764511193.8021023,-3.54032,-0.0762999999999999,0.82404,0.96374265,0.110046105,0.13720668
1764511193.8021023,-3.57084,0.09156,0.9003399999999999,0.964291965,0.109435755,0.1367184
1764511193.8021023,-3.57084,0.09156,0.9003399999999999,0.964291965,0.109435755,0.1367184
1764511193.8021023,-3.57084,0.09156,0.9003399999999999,0.964291965,0.109435755,0.1367184
1764511193.8021023,-3.57084,0.09156,0.9003399999999999,0.964291965,0.109435755,0.1367184
1764511193.8443823,-3.57084,0.09156,0.9003399999999999,0.964291965,0.109435755,0.1367184
1764511193.8443823,-3.57084,0.09156,0.9003399999999999,0.964291965,0.109435755,0.1367184
1764511193.8443823,-3.57084,0.09156,0.9003399999999999,0.964291965,0.109435755,0.1367184
1764511193.8443823,-3.57084,0.09156,0.9003399999999999,0.964291965,0.109435755,0.1367184
1764511193.8443823,-3.57084,0.09156,0.9003399999999999,0.964291965,0.109435755,0.1367184
1764511193.8443823,-3.57084,0.09156,0.9003399999999999,0.964291965,0.109435755,0.1367184
1764511193.8443823,-4.08968,0.10682,0.65618,0.965512665,0.110412315,0.135436665
1764511193.8443823,-4.08968,0.10682,0.65618,0.965512665,0.110412315,0.135436665
1764511193.8443823,-4.08968,0.10682,0.65618,0.965512665,0.110412315,0.135436665
1764511193.8443823,-4.08968,0.10682,0.65618,0.965512665,0.110412315,0.135436665
1764511193.8443823,-4.08968,0.10682,0.65618,0.965512665,0.110412315,0.135436665
1764511193.8443823,-4.08968,0.10682,0.65618,0.965512665,0.110412315,0.135436665
1764511193.845383,-4.08968,0.10682,0.65618,0.965512665,0.110412315,0.135436665
1764511193.845383,-4.08968,0.10682,0.65618,0.965512665,0.110412315,0.135436665
1764511193.845383,-4.08968,0.10682,0.65618,0.965512665,0.110412315,0.135436665
1764511193.845383,-4.08968,0.10682,0.65618,0.965512665,0.110412315,0.135436665
1764511193.845383,-4.45592,0.51884,0.50358,0.967099575,0.11144991,0.134338035
1764511193.845383,-4.45592,0.51884,0.50358,0.967099575,0.11144991,0.134338035
1764511193.845383,-4.45592,0.51884,0.50358,0.967099575,0.11144991,0.134338035
1764511193.8469272,-4.45592,0.51884,0.50358,0.967099575,0.11144991,0.134338035
1764511193.8469272,-4.45592,0.51884,0.50358,0.967099575,0.11144991,0.134338035
1764511193.8469272,-4.45592,0.51884,0.50358,0.967099575,0.11144991,0.134338035
1764511193.8479674,-4.45592,0.51884,0.50358,0.967099575,0.11144991,0.134338035
1764511193.8479674,-4.45592,0.51884,0.50358,0.967099575,0.11144991,0.134338035
1764511193.891794,-4.45592,0.51884,0.50358,0.967099575,0.11144991,0.134338035
1764511193.891794,-4.45592,0.51884,0.50358,0.967099575,0.11144991,0.134338035
1764511193.891794,-4.51696,1.1445,0.12208,0.969052695,0.11083956,0.13391079
1764511193.891794,-4.51696,1.1445,0.12208,0.969052695,0.11083956,0.13391079
1764511193.891794,-4.51696,1.1445,0.12208,0.969052695,0.11083956,0.13391079
1764511193.891794,-4.51696,1.1445,0.12208,0.969052695,0.11083956,0.13391079
1764511193.891794,-4.51696,1.1445,0.12208,0.969052695,0.11083956,0.13391079
1764511193.891794,-4.51696,1.1445,0.12208,0.969052695,0.11083956,0.13391079
1764511193.891794,-4.51696,1.1445,0.12208,0.969052695,0.11083956,0.13391079
1764511193.891794,-4.51696,1.1445,0.12208,0.969052695,0.11083956,0.13391079
1764511193.891794,-4.51696,1.1445,0.12208,0.969052695,0.11083956,0.13391079
1764511193.891794,-4.51696,1.1445,0.12208,0.969052695,0.11083956,0.13391079
1764511193.891794,-4.440659999999999,1.6022999999999998,0.5341,0.96862545,0.109069545,0.134460105
1764511193.891794,-4.440659999999999,1.6022999999999998,0.5341,0.96862545,0.109069545,0.134460105
1764511193.891794,-4.440659999999999,1.6022999999999998,0.5341,0.96862545,0.109069545,0.134460105
1764511193.891794,-4.440659999999999,1.6022999999999998,0.5341,0.96862545,0.109069545,0.134460105
1764511193.891794,-4.440659999999999,1.6022999999999998,0.5341,0.96862545,0.109069545,0.134460105
1764511193.891794,-4.440659999999999,1.6022999999999998,0.5341,0.96862545,0.109069545,0.134460105
1764511193.891794,-4.440659999999999,1.6022999999999998,0.5341,0.96862545,0.109069545,0.134460105
1764511193.891794,-4.440659999999999,1.6022999999999998,0.5341,0.96862545,0.109069545,0.134460105
1764511193.891794,-4.440659999999999,1.6022999999999998,0.5341,0.96862545,0.109069545,0.134460105
1764511193.891794,-4.440659999999999,1.6022999999999998,0.5341,0.96862545,0.109069545,0.134460105
1764511193.891794,-3.38772,1.7549,0.96138,0.96716061,0.10839816,0.134582175
1764511193.891794,-3.38772,1.7549,0.96138,0.96716061,0.10839816,0.134582175
1764511193.9368718,-3.38772,1.7549,0.96138,0.96716061,0.10839816,0.134582175
1764511193.9368718,-3.38772,1.7549,0.96138,0.96716061,0.10839816,0.134582175
1764511193.9368718,-3.38772,1.7549,0.96138,0.96716061,0.10839816,0.134582175
1764511193.9368718,-3.38772,1.7549,0.96138,0.96716061,0.10839816,0.134582175
1764511193.9368718,-3.38772,1.7549,0.96138,0.96716061,0.10839816,0.134582175
1764511193.9368718,-3.38772,1.7549,0.96138,0.96716061,0.10839816,0.134582175
1764511193.9374332,-3.38772,1.7549,0.96138,0.96716061,0.10839816,0.134582175
1764511193.9374332,-3.38772,1.7549,0.96138,0.96716061,0.10839816,0.134582175
1764511193.9374332,-2.45686,1.84646,1.34288,0.96630612,0.1074216,0.134948385
1764511193.9374332,-2.45686,1.84646,1.34288,0.96630612,0.1074216,0.134948385
1764511193.9374332,-2.45686,1.84646,1.34288,0.96630612,0.1074216,0.134948385
1764511193.9374332,-2.45686,1.84646,1.34288,0.96630612,0.1074216,0.134948385
1764511193.9374332,-2.45686,1.84646,1.34288,0.96630612,0.1074216,0.134948385
1764511193.9374332,-2.45686,1.84646,1.34288,0.96630612,0.1074216,0.134948385
1764511193.9374332,-2.45686,1.84646,1.34288,0.96630612,0.1074216,0.134948385
1764511193.9374332,-2.45686,1.84646,1.34288,0.96630612,0.1074216,0.134948385
1764511193.9374332,-2.45686,1.84646,1.34288,0.96630612,0.1074216,0.134948385
1764511193.9374332,-2.45686,1.84646,1.34288,0.96630612,0.1074216,0.134948385
1764511193.9374332,-1.8006799999999998,1.8312,1.57178,0.966123015,0.107482635,0.135192525
1764511193.9374332,-1.8006799999999998,1.8312,1.57178,0.966123015,0.107482635,0.135192525
1764511193.9374332,-1.8006799999999998,1.8312,1.57178,0.966123015,0.107482635,0.135192525
1764511193.9374332,-1.8006799999999998,1.8312,1.57178,0.966123015,0.107482635,0.135192525
1764511193.9819868,-1.8006799999999998,1.8312,1.57178,0.966123015,0.107482635,0.135192525
1764511193.9825003,-1.8006799999999998,1.8312,1.57178,0.966123015,0.107482635,0.135192525
1764511193.9825003,-1.8006799999999998,1.8312,1.57178,0.966123015,0.107482635,0.135192525
1764511193.9825003,-1.8006799999999998,1.8312,1.57178,0.966123015,0.107482635,0.135192525
1764511193.9825003,-1.8006799999999998,1.8312,1.57178,0.966123015,0.107482635,0.135192525
1764511193.9825003,-1.8006799999999998,1.8312,1.57178,0.966123015,0.107482635,0.135192525
1764511193.9825003,-2.01432,2.33478,1.4039199999999998,0.966123015,0.108947475,0.13635219
1764511193.9825003,-2.01432,2.33478,1.4039199999999998,0.966123015,0.108947475,0.13635219
1764511193.9825003,-2.01432,2.33478,1.4039199999999998,0.966123015,0.108947475,0.13635219
1764511193.9825003,-2.01432,2.33478,1.4039199999999998,0.966123015,0.108947475,0.13635219
1764511193.9825003,-2.01432,2.33478,1.4039199999999998,0.966123015,0.108947475,0.13635219
1764511193.9825003,-2.01432,2.33478,1.4039199999999998,0.966123015,0.108947475,0.13635219
1764511193.9825003,-2.01432,2.33478,1.4039199999999998,0.966123015,0.108947475,0.13635219
1764511193.9825003,-2.01432,2.33478,1.4039199999999998,0.966123015,0.108947475,0.13635219
1764511193.9825003,-2.01432,2.33478,1.4039199999999998,0.966123015,0.108947475,0.13635219
1764511193.9825003,-2.01432,2.33478,1.4039199999999998,0.966123015,0.108947475,0.13635219
1764511193.9825003,-2.5942,2.30426,1.38866,0.965756805,0.11132784,0.136535295
1764511193.9825003,-2.5942,2.30426,1.38866,0.965756805,0.11132784,0.136535295
1764511193.9825003,-2.5942,2.30426,1.38866,0.965756805,0.11132784,0.136535295
1764511193.9825003,-2.5942,2.30426,1.38866,0.965756805,0.11132784,0.136535295
1764511193.9825003,-2.5942,2.30426,1.38866,0.965756805,0.11132784,0.136535295
1764511193.9825003,-2.5942,2.30426,1.38866,0.965756805,0.11132784,0.136535295
1764511194.0313013,-2.5942,2.30426,1.38866,0.965756805,0.11132784,0.136535295
1764511194.0313013,-2.5942,2.30426,1.38866,0.965756805,0.11132784,0.136535295
1764511194.0313013,-2.5942,2.30426,1.38866,0.965756805,0.11132784,0.136535295
1764511194.0313013,-2.5942,2.30426,1.38866,0.965756805,0.11132784,0.136535295
1764511194.0313013,-3.15882,2.04484,0.85456,0.965878875,0.112121295,0.13647426
1764511194.0313013,-3.15882,2.04484,0.85456,0.965878875,0.112121295,0.13647426
1764511194.0313013,-3.15882,2.04484,0.85456,0.965878875,0.112121295,0.13647426
1764511194.0313013,-3.15882,2.04484,0.85456,0.965878875,0.112121295,0.13647426
1764511194.0313013,-3.15882,2.04484,0.85456,0.965878875,0.112121295,0.13647426
1764511194.032333,-3.15882,2.04484,0.85456,0.965878875,0.112121295,0.13647426
1764511194.032333,-3.15882,2.04484,0.85456,0.965878875,0.112121295,0.13647426
1764511194.032333,-3.15882,2.04484,0.85456,0.965878875,0.112121295,0.13647426
1764511194.032333,-3.15882,2.04484,0.85456,0.965878875,0.112121295,0.13647426
1764511194.032333,-3.15882,2.04484,0.85456,0.965878875,0.112121295,0.13647426
1764511194.032333,-4.13546,1.73964,0.94612,0.965634735,0.1123044,0.137389785
1764511194.032333,-4.13546,1.73964,0.94612,0.965634735,0.1123044,0.137389785
1764511194.032333,-4.13546,1.73964,0.94612,0.965634735,0.1123044,0.137389785
1764511194.032333,-4.13546,1.73964,0.94612,0.965634735,0.1123044,0.137389785
1764511194.0338717,-4.13546,1.73964,0.94612,0.965634735,0.1123044,0.137389785
1764511194.0338717,-4.13546,1.73964,0.94612,0.965634735,0.1123044,0.137389785
1764511194.0338717,-4.13546,1.73964,0.94612,0.965634735,0.1123044,0.137389785
1764511194.0338717,-4.13546,1.73964,0.94612,0.965634735,0.1123044,0.137389785
1764511194.0338717,-4.13546,1.73964,0.94612,0.965634735,0.1123044,0.137389785
1764511194.0338717,-4.13546,1.73964,0.94612,0.965634735,0.1123044,0.137389785
1764511194.0784874,-4.13546,1.6022999999999998,0.3509799999999999,0.964780245,0.112121295,0.138122205
1764511194.0784874,-4.13546,1.6022999999999998,0.3509799999999999,0.964780245,0.112121295,0.138122205
1764511194.0784874,-4.13546,1.6022999999999998,0.3509799999999999,0.964780245,0.112121295,0.138122205
1764511194.0784874,-4.13546,1.6022999999999998,0.3509799999999999,0.964780245,0.112121295,0.138122205
1764511194.0784874,-4.13546,1.6022999999999998,0.3509799999999999,0.964780245,0.112121295,0.138122205
1764511194.0794806,-4.13546,1.6022999999999998,0.3509799999999999,0.964780245,0.112121295,0.138122205
1764511194.0794806,-4.13546,1.6022999999999998,0.3509799999999999,0.964780245,0.112121295,0.138122205
1764511194.0794806,-4.13546,1.6022999999999998,0.3509799999999999,0.964780245,0.112121295,0.138122205
1764511194.0794806,-4.13546,1.6022999999999998,0.3509799999999999,0.964780245,0.112121295,0.138122205
1764511194.0794806,-4.13546,1.6022999999999998,0.3509799999999999,0.964780245,0.112121295,0.138122205
1764511194.0794806,-4.10494,1.32762,0.3051999999999999,0.964169895,0.110534385,0.138732555
1764511194.0794806,-4.10494,1.32762,0.3051999999999999,0.964169895,0.110534385,0.138732555
1764511194.0794806,-4.10494,1.32762,0.3051999999999999,0.964169895,0.110534385,0.138732555
1764511194.0794806,-4.10494,1.32762,0.3051999999999999,0.964169895,0.110534385,0.138732555
1764511194.0794806,-4.10494,1.32762,0.3051999999999999,0.964169895,0.110534385,0.138732555
1764511194.0794806,-4.10494,1.32762,0.3051999999999999,0.964169895,0.110534385,0.138732555
1764511194.0794806,-4.10494,1.32762,0.3051999999999999,0.964169895,0.110534385,0.138732555
1764511194.0794806,-4.10494,1.32762,0.3051999999999999,0.964169895,0.110534385,0.138732555
1764511194.0794806,-4.10494,1.32762,0.3051999999999999,0.964169895,0.110534385,0.138732555
1764511194.0800068,-4.10494,1.32762,0.3051999999999999,0.964169895,0.110534385,0.138732555
1764511194.0800068,-4.28806,0.2289,0.4578,0.963315405,0.109924035,0.13830531
1764511194.0800068,-4.28806,0.2289,0.4578,0.963315405,0.109924035,0.13830531
1764511194.0800068,-4.28806,0.2289,0.4578,0.963315405,0.109924035,0.13830531
1764511194.0800068,-4.28806,0.2289,0.4578,0.963315405,0.109924035,0.13830531
1764511194.1261132,-4.28806,0.2289,0.4578,0.963315405,0.109924035,0.13830531
1764511194.1261132,-4.28806,0.2289,0.4578,0.963315405,0.109924035,0.13830531
1764511194.1261132,-4.28806,0.2289,0.4578,0.963315405,0.109924035,0.13830531
1764511194.1261132,-4.28806,0.2289,0.4578,0.963315405,0.109924035,0.13830531
1764511194.1261132,-4.28806,0.2289,0.4578,0.963315405,0.109924035,0.13830531
1764511194.1261132,-4.28806,0.2289,0.4578,0.963315405,0.109924035,0.13830531
1764511194.1261132,-3.92182,0.39676,0.9156,0.9631323,0.110168175,0.13806117
1764511194.1261132,-3.92182,0.39676,0.9156,0.9631323,0.110168175,0.13806117
1764511194.1261132,-3.92182,0.39676,0.9156,0.9631323,0.110168175,0.13806117
1764511194.1261132,-3.92182,0.39676,0.9156,0.9631323,0.110168175,0.13806117
1764511194.1261132,-3.92182,0.39676,0.9156,0.9631323,0.110168175,0.13806117
1764511194.1261132,-3.92182,0.39676,0.9156,0.9631323,0.110168175,0.13806117
1764511194.1271274,-3.92182,0.39676,0.9156,0.9631323,0.110168175,0.13806117
1764511194.1271274,-3.92182,0.39676,0.9156,0.9631323,0.110168175,0.13806117
1764511194.1271274,-3.92182,0.39676,0.9156,0.9631323,0.110168175,0.13806117
1764511194.1271274,-3.92182,0.39676,0.9156,0.9631323,0.110168175,0.13806117
1764511194.1271274,-4.440659999999999,0.12208,1.23606,0.96484128,0.10949679,0.138122205
1764511194.1271274,-4.440659999999999,0.12208,1.23606,0.96484128,0.10949679,0.138122205
1764511194.1271274,-4.440659999999999,0.12208,1.23606,0.96484128,0.10949679,0.138122205
1764511194.1271274,-4.440659999999999,0.12208,1.23606,0.96484128,0.10949679,0.138122205
1764511194.1271274,-4.440659999999999,0.12208,1.23606,0.96484128,0.10949679,0.138122205
1764511194.1271274,-4.440659999999999,0.12208,1.23606,0.96484128,0.10949679,0.138122205
1764511194.1271274,-4.440659999999999,0.12208,1.23606,0.96484128,0.10949679,0.138122205
1764511194.1271274,-4.440659999999999,0.12208,1.23606,0.96484128,0.10949679,0.138122205
1764511194.1704233,-4.440659999999999,0.12208,1.23606,0.96484128,0.10949679,0.138122205
1764511194.1714694,-4.440659999999999,0.12208,1.23606,0.96484128,0.10949679,0.138122205
1764511194.1714694,-3.9676,0.9156,1.03768,0.966367155,0.10876437,0.137755995
1764511194.1714694,-3.9676,0.9156,1.03768,0.966367155,0.10876437,0.137755995
1764511194.1714694,-3.9676,0.9156,1.03768,0.966367155,0.10876437,0.137755995
1764511194.1714694,-3.9676,0.9156,1.03768,0.966367155,0.10876437,0.137755995
1764511194.1714694,-3.9676,0.9156,1.03768,0.966367155,0.10876437,0.137755995
1764511194.1714694,-3.9676,0.9156,1.03768,0.966367155,0.10876437,0.137755995
1764511194.1714694,-3.9676,0.9156,1.03768,0.966367155,0.10876437,0.137755995
1764511194.1714694,-3.9676,0.9156,1.03768,0.966367155,0.10876437,0.137755995
1764511194.1714694,-3.9676,0.9156,1.03768,0.966367155,0.10876437,0.137755995
1764511194.17301,-3.9676,0.9156,1.03768,0.966367155,0.10876437,0.137755995
1764511194.17301,-3.47928,1.58704,0.47306,0.966977505,0.10717746,0.1379391
1764511194.17301,-3.47928,1.58704,0.47306,0.966977505,0.10717746,0.1379391
1764511194.17301,-3.47928,1.58704,0.47306,0.966977505,0.10717746,0.1379391
1764511194.17301,-3.47928,1.58704,0.47306,0.966977505,0.10717746,0.1379391
1764511194.17301,-3.47928,1.58704,0.47306,0.966977505,0.10717746,0.1379391
1764511194.1740544,-3.47928,1.58704,0.47306,0.966977505,0.10717746,0.1379391
1764511194.1740544,-3.47928,1.58704,0.47306,0.966977505,0.10717746,0.1379391
1764511194.1740544,-3.47928,1.58704,0.47306,0.966977505,0.10717746,0.1379391
1764511194.1740544,-3.47928,1.58704,0.47306,0.966977505,0.10717746,0.1379391
1764511194.1740544,-3.47928,1.58704,0.47306,0.966977505,0.10717746,0.1379391
1764511194.2153473,-3.63188,1.19028,0.3815,0.965146455,0.10827609,0.13708461
1764511194.2153473,-3.63188,1.19028,0.3815,0.965146455,0.10827609,0.13708461
1764511194.2153473,-3.63188,1.19028,0.3815,0.965146455,0.10827609,0.13708461
1764511194.216388,-3.63188,1.19028,0.3815,0.965146455,0.10827609,0.13708461
1764511194.216388,-3.63188,1.19028,0.3815,0.965146455,0.10827609,0.13708461
1764511194.216388,-3.63188,1.19028,0.3815,0.965146455,0.10827609,0.13708461
1764511194.216388,-3.63188,1.19028,0.3815,0.965146455,0.10827609,0.13708461
1764511194.216388,-3.63188,1.19028,0.3815,0.965146455,0.10827609,0.13708461
1764511194.216388,-3.63188,1.19028,0.3815,0.965146455,0.10827609,0.13708461
1764511194.216388,-3.63188,1.19028,0.3815,0.965146455,0.10827609,0.13708461
1764511194.216388,-2.96044,0.96138,0.6103999999999999,0.964902315,0.10778781,0.137511855
1764511194.216388,-2.96044,0.96138,0.6103999999999999,0.964902315,0.10778781,0.137511855
1764511194.2179916,-2.96044,0.96138,0.6103999999999999,0.964902315,0.10778781,0.137511855
1764511194.2179916,-2.96044,0.96138,0.6103999999999999,0.964902315,0.10778781,0.137511855
1764511194.2179916,-2.96044,0.96138,0.6103999999999999,0.964902315,0.10778781,0.137511855
1764511194.2179916,-2.96044,0.96138,0.6103999999999999,0.964902315,0.10778781,0.137511855
1764511194.2179916,-2.96044,0.96138,0.6103999999999999,0.964902315,0.10778781,0.137511855
1764511194.2179916,-2.96044,0.96138,0.6103999999999999,0.964902315,0.10778781,0.137511855
1764511194.2179916,-2.96044,0.96138,0.6103999999999999,0.964902315,0.10778781,0.137511855
1764511194.2179916,-2.96044,0.96138,0.6103999999999999,0.964902315,0.10778781,0.137511855
1764511194.2179916,-3.06726,0.27468,-0.65618,0.964902315,0.10937472,0.13623012
1764511194.2190008,-3.06726,0.27468,-0.65618,0.964902315,0.10937472,0.13623012
1764511194.2190008,-3.06726,0.27468,-0.65618,0.964902315,0.10937472,0.13623012
1764511194.2190008,-3.06726,0.27468,-0.65618,0.964902315,0.10937472,0.13623012
1764511194.2641983,-3.06726,0.27468,-0.65618,0.964902315,0.10937472,0.13623012
1764511194.2641983,-3.06726,0.27468,-0.65618,0.964902315,0.10937472,0.13623012
1764511194.2641983,-3.06726,0.27468,-0.65618,0.964902315,0.10937472,0.13623012
1764511194.2641983,-3.06726,0.27468,-0.65618,0.964902315,0.10937472,0.13623012
1764511194.2641983,-3.06726,0.27468,-0.65618,0.964902315,0.10937472,0.13623012
1764511194.2641983,-3.06726,0.27468,-0.65618,0.964902315,0.10937472,0.13623012
1764511194.2641983,-3.76922,1.02242,-0.9003399999999999,0.966733365,0.11059542,0.136901505
1764511194.2641983,-3.76922,1.02242,-0.9003399999999999,0.966733365,0.11059542,0.136901505
1764511194.2641983,-3.76922,1.02242,-0.9003399999999999,0.966733365,0.11059542,0.136901505
1764511194.2641983,-3.76922,1.02242,-0.9003399999999999,0.966733365,0.11059542,0.136901505
1764511194.2651956,-3.76922,1.02242,-0.9003399999999999,0.966733365,0.11059542,0.136901505
1764511194.2651956,-3.76922,1.02242,-0.9003399999999999,0.966733365,0.11059542,0.136901505
1764511194.2651956,-3.76922,1.02242,-0.9003399999999999,0.966733365,0.11059542,0.136901505
1764511194.2651956,-3.76922,1.02242,-0.9003399999999999,0.966733365,0.11059542,0.136901505
1764511194.2651956,-3.76922,1.02242,-0.9003399999999999,0.966733365,0.11059542,0.136901505
1764511194.2651956,-3.76922,1.02242,-0.9003399999999999,0.966733365,0.11059542,0.136901505
1764511194.2651956,-4.10494,1.99906,-0.6103999999999999,0.96850338,0.111999225,0.13684047
1764511194.2651956,-4.10494,1.99906,-0.6103999999999999,0.96850338,0.111999225,0.13684047
1764511194.2651956,-4.10494,1.99906,-0.6103999999999999,0.96850338,0.111999225,0.13684047
1764511194.2651956,-4.10494,1.99906,-0.6103999999999999,0.96850338,0.111999225,0.13684047
1764511194.2651956,-4.10494,1.99906,-0.6103999999999999,0.96850338,0.111999225,0.13684047
1764511194.2651956,-4.10494,1.99906,-0.6103999999999999,0.96850338,0.111999225,0.13684047
1764511194.2651956,-4.10494,1.99906,-0.6103999999999999,0.96850338,0.111999225,0.13684047
1764511194.2651956,-4.10494,1.99906,-0.6103999999999999,0.96850338,0.111999225,0.13684047
1764511194.30872,-4.10494,1.99906,-0.6103999999999999,0.96850338,0.111999225,0.13684047
